"exp","partId","selfShape","nBlock","nTrial","shape","word","match","resp","rt","corr"
"e1",7553574,"Self-Triangle Task",1,1,"btriangle.png","You","Match ","Match ",708.213999998508,1
"e1",7553574,"Self-Triangle Task",1,2,"circle.png","Stranger","Mismatch ","Match ",596.905999999261,0
"e1",7553574,"Self-Triangle Task",1,3,"circle.png","Friend","Match ","Match ",581.248000000007,1
"e1",7553574,"Self-Triangle Task",1,4,"btriangle.png","You","Match ","Match ",633.313999998514,1
"e1",7553574,"Self-Triangle Task",1,5,"btriangle.png","You","Match ","Mismatch ",689.380999998888,0
"e1",7553574,"Self-Triangle Task",1,6,"btriangle.png","Friend","Mismatch ","",1499.99099999999,0
"e1",7553574,"Self-Triangle Task",1,7,"circle.png","You","Mismatch ","Match ",627.12299999925,0
"e1",7553574,"Self-Triangle Task",1,8,"square.png","Friend","Mismatch ","Mismatch ",760.657999999996,1
"e1",7553574,"Self-Triangle Task",1,9,"btriangle.png","Friend","Mismatch ","Mismatch ",644.5,1
"e1",7553574,"Self-Triangle Task",1,10,"btriangle.png","You","Match ","Match ",422.672999999631,1
"e1",7553574,"Self-Triangle Task",1,11,"circle.png","Friend","Match ","Mismatch ",442.804999999629,0
"e1",7553574,"Self-Triangle Task",1,12,"btriangle.png","Friend","Mismatch ","Mismatch ",889.298999999621,1
"e1",7553574,"Self-Triangle Task",1,13,"square.png","Stranger","Match ","Mismatch ",903.333999999624,0
"e1",7553574,"Self-Triangle Task",1,14,"btriangle.png","Stranger","Mismatch ","Match ",426.104000000007,0
"e1",7553574,"Self-Triangle Task",1,15,"square.png","Friend","Mismatch ","Mismatch ",598.021999999255,1
"e1",7553574,"Self-Triangle Task",1,16,"btriangle.png","You","Match ","Match ",588.498999999254,1
"e1",7553574,"Self-Triangle Task",1,17,"square.png","Stranger","Match ","Mismatch ",745.272999998502,0
"e1",7553574,"Self-Triangle Task",1,18,"square.png","You","Mismatch ","Match ",594.77499999851,0
"e1",7553574,"Self-Triangle Task",1,19,"circle.png","You","Mismatch ","Mismatch ",495.502999999619,1
"e1",7553574,"Self-Triangle Task",1,20,"square.png","Stranger","Match ","Mismatch ",525.412000000011,0
"e1",7553574,"Self-Triangle Task",1,21,"btriangle.png","You","Match ","Match ",727.997999998508,1
"e1",7553574,"Self-Triangle Task",1,22,"circle.png","Friend","Match ","Mismatch ",403.952999999252,0
"e1",7553574,"Self-Triangle Task",1,23,"btriangle.png","Stranger","Mismatch ","Match ",689.401999998896,0
"e1",7553574,"Self-Triangle Task",1,24,"btriangle.png","Stranger","Mismatch ","",1499.90900000001,0
"e1",7553574,"Self-Triangle Task",1,25,"btriangle.png","You","Match ","Match ",647.265999998868,1
"e1",7553574,"Self-Triangle Task",1,26,"square.png","Friend","Mismatch ","Mismatch ",711.349999998871,1
"e1",7553574,"Self-Triangle Task",1,27,"square.png","Friend","Mismatch ","Mismatch ",932.805999998498,1
"e1",7553574,"Self-Triangle Task",1,28,"square.png","You","Mismatch ","Mismatch ",531.348999998881,1
"e1",7553574,"Self-Triangle Task",1,29,"btriangle.png","You","Match ","Mismatch ",587.782000000007,0
"e1",7553574,"Self-Triangle Task",1,30,"circle.png","You","Mismatch ","Match ",699.364999999641,0
"e1",7553574,"Self-Triangle Task",1,31,"circle.png","Stranger","Mismatch ","Mismatch ",608.288,1
"e1",7553574,"Self-Triangle Task",1,32,"circle.png","Friend","Match ","Mismatch ",516.656000000017,0
"e1",7553574,"Self-Triangle Task",1,33,"btriangle.png","Friend","Mismatch ","Mismatch ",836.740999999252,1
"e1",7553574,"Self-Triangle Task",1,34,"square.png","Stranger","Match ","Mismatch ",530.051000000007,0
"e1",7553574,"Self-Triangle Task",1,35,"circle.png","Friend","Match ","Mismatch ",566.525999998878,0
"e1",7553574,"Self-Triangle Task",1,36,"square.png","You","Mismatch ","Match ",522.048999999999,0
"e1",7553574,"Self-Triangle Task",1,37,"circle.png","Stranger","Mismatch ","Mismatch ",970.552999998879,1
"e1",7553574,"Self-Triangle Task",1,38,"square.png","You","Mismatch ","Match ",824.060999999638,0
"e1",7553574,"Self-Triangle Task",1,39,"circle.png","You","Mismatch ","Mismatch ",428.413999998884,1
"e1",7553574,"Self-Triangle Task",1,40,"circle.png","You","Mismatch ","Mismatch ",489.934999999619,1
"e1",7553574,"Self-Triangle Task",1,41,"square.png","Stranger","Match ","Mismatch ",694.654999998893,0
"e1",7553574,"Self-Triangle Task",1,42,"btriangle.png","You","Match ","Match ",494.803999998519,1
"e1",7553574,"Self-Triangle Task",1,43,"circle.png","Friend","Match ","Match ",536.399999999994,1
"e1",7553574,"Self-Triangle Task",1,44,"square.png","Friend","Mismatch ","Match ",516.585999999254,0
"e1",7553574,"Self-Triangle Task",1,45,"circle.png","Friend","Match ","Mismatch ",616.694000000018,0
"e1",7553574,"Self-Triangle Task",1,46,"btriangle.png","Stranger","Mismatch ","Mismatch ",881.190999999613,1
"e1",7553574,"Self-Triangle Task",1,47,"circle.png","Stranger","Mismatch ","Mismatch ",928.097999998892,1
"e1",7553574,"Self-Triangle Task",1,48,"circle.png","Stranger","Mismatch ","Mismatch ",849.245999998879,1
"e1",7553574,"Self-Triangle Task",1,49,"square.png","Stranger","Match ","Match ",966.671000000002,1
"e1",7553574,"Self-Triangle Task",1,50,"btriangle.png","Friend","Mismatch ","Mismatch ",1040.65999999887,1
"e1",7553574,"Self-Triangle Task",1,51,"btriangle.png","Stranger","Mismatch ","Mismatch ",778.064999999246,1
"e1",7553574,"Self-Triangle Task",1,52,"square.png","Stranger","Match ","Mismatch ",714.867999998882,0
"e1",7553574,"Self-Triangle Task",1,53,"btriangle.png","You","Match ","Match ",512.882000000012,1
"e1",7553574,"Self-Triangle Task",1,54,"circle.png","Friend","Match ","Mismatch ",563.969999999244,0
"e1",7553574,"Self-Triangle Task",1,55,"square.png","Stranger","Match ","Mismatch ",699.510999998514,0
"e1",7553574,"Self-Triangle Task",1,56,"square.png","Stranger","Match ","Match ",764.580999998521,1
"e1",7553574,"Self-Triangle Task",1,57,"square.png","Stranger","Match ","Match ",886.893999998516,1
"e1",7553574,"Self-Triangle Task",1,58,"circle.png","Friend","Match ","Match ",614.602999999624,1
"e1",7553574,"Self-Triangle Task",1,59,"square.png","You","Mismatch ","Mismatch ",963.342999999993,1
"e1",7553574,"Self-Triangle Task",1,60,"circle.png","Friend","Match ","Mismatch ",772.661999998498,0
"e1",7553574,"Self-Triangle Task",2,61,"circle.png","Stranger","Mismatch ","Mismatch ",1355.785,1
"e1",7553574,"Self-Triangle Task",2,62,"square.png","Friend","Mismatch ","Mismatch ",936.657999999996,1
"e1",7553574,"Self-Triangle Task",2,63,"square.png","Friend","Mismatch ","Mismatch ",898.803999999654,1
"e1",7553574,"Self-Triangle Task",2,64,"square.png","Friend","Mismatch ","Mismatch ",775.504999998899,1
"e1",7553574,"Self-Triangle Task",2,65,"circle.png","Friend","Match ","Match ",693.761999998533,1
"e1",7553574,"Self-Triangle Task",2,66,"square.png","Stranger","Match ","Mismatch ",761.307999998506,0
"e1",7553574,"Self-Triangle Task",2,67,"btriangle.png","Friend","Mismatch ","Mismatch ",879.962999999232,1
"e1",7553574,"Self-Triangle Task",2,68,"circle.png","Stranger","Mismatch ","Match ",1171.13899999927,0
"e1",7553574,"Self-Triangle Task",2,69,"btriangle.png","You","Match ","Match ",881.141000000003,1
"e1",7553574,"Self-Triangle Task",2,70,"btriangle.png","Stranger","Mismatch ","Mismatch ",826.092999998888,1
"e1",7553574,"Self-Triangle Task",2,71,"btriangle.png","Stranger","Mismatch ","Mismatch ",807.382999998517,1
"e1",7553574,"Self-Triangle Task",2,72,"btriangle.png","You","Match ","Match ",783.360000000044,1
"e1",7553574,"Self-Triangle Task",2,73,"btriangle.png","You","Match ","Mismatch ",863.418999998888,0
"e1",7553574,"Self-Triangle Task",2,74,"circle.png","You","Mismatch ","Mismatch ",882.599999999278,1
"e1",7553574,"Self-Triangle Task",2,75,"square.png","Stranger","Match ","Match ",1050.06700000004,1
"e1",7553574,"Self-Triangle Task",2,76,"square.png","Stranger","Match ","Match ",982.811999999278,1
"e1",7553574,"Self-Triangle Task",2,77,"circle.png","Friend","Match ","Match ",811.314000000013,1
"e1",7553574,"Self-Triangle Task",2,78,"btriangle.png","You","Match ","Match ",870.688000000024,1
"e1",7553574,"Self-Triangle Task",2,79,"square.png","You","Mismatch ","Match ",1012.04799999925,0
"e1",7553574,"Self-Triangle Task",2,80,"btriangle.png","Friend","Mismatch ","Mismatch ",1002.48099999927,1
"e1",7553574,"Self-Triangle Task",2,81,"circle.png","Friend","Match ","Match ",863.866999998863,1
"e1",7553574,"Self-Triangle Task",2,82,"btriangle.png","You","Match ","Match ",888.134999999253,1
"e1",7553574,"Self-Triangle Task",2,83,"btriangle.png","Friend","Mismatch ","Mismatch ",883.249000000011,1
"e1",7553574,"Self-Triangle Task",2,84,"square.png","Stranger","Match ","Mismatch ",977.928999998898,0
"e1",7553574,"Self-Triangle Task",2,85,"btriangle.png","You","Match ","Match ",823.018999999273,1
"e1",7553574,"Self-Triangle Task",2,86,"circle.png","Stranger","Mismatch ","Mismatch ",1000.04599999997,1
"e1",7553574,"Self-Triangle Task",2,87,"square.png","Stranger","Match ","Mismatch ",1007.02100000001,0
"e1",7553574,"Self-Triangle Task",2,88,"square.png","You","Mismatch ","Mismatch ",887.391999999993,1
"e1",7553574,"Self-Triangle Task",2,89,"btriangle.png","You","Match ","Match ",840.488000000012,1
"e1",7553574,"Self-Triangle Task",2,90,"circle.png","You","Mismatch ","Mismatch ",869.269999998854,1
"e1",7553574,"Self-Triangle Task",2,91,"btriangle.png","Friend","Mismatch ","Mismatch ",766.61400000006,1
"e1",7553574,"Self-Triangle Task",2,92,"circle.png","Friend","Match ","Match ",780.650999999256,1
"e1",7553574,"Self-Triangle Task",2,93,"circle.png","You","Mismatch ","Mismatch ",1043.27499999962,1
"e1",7553574,"Self-Triangle Task",2,94,"square.png","You","Mismatch ","Mismatch ",887.120999998529,1
"e1",7553574,"Self-Triangle Task",2,95,"square.png","Friend","Mismatch ","Mismatch ",1177.09999999852,1
"e1",7553574,"Self-Triangle Task",2,96,"btriangle.png","Stranger","Mismatch ","Mismatch ",897.318999998504,1
"e1",7553574,"Self-Triangle Task",2,97,"square.png","Stranger","Match ","Match ",948.457999999984,1
"e1",7553574,"Self-Triangle Task",2,98,"circle.png","You","Mismatch ","Mismatch ",914.478000000003,1
"e1",7553574,"Self-Triangle Task",2,99,"btriangle.png","You","Match ","Match ",991.126999998873,1
"e1",7553574,"Self-Triangle Task",2,100,"btriangle.png","Stranger","Mismatch ","Mismatch ",865.988999999652,1
"e1",7553574,"Self-Triangle Task",2,101,"square.png","Stranger","Match ","Mismatch ",753.409999999276,0
"e1",7553574,"Self-Triangle Task",2,102,"circle.png","Friend","Match ","Match ",910.552000000025,1
"e1",7553574,"Self-Triangle Task",2,103,"circle.png","Stranger","Mismatch ","Mismatch ",831.829999998503,1
"e1",7553574,"Self-Triangle Task",2,104,"btriangle.png","Friend","Mismatch ","Mismatch ",878.57699999999,1
"e1",7553574,"Self-Triangle Task",2,105,"square.png","Stranger","Match ","Match ",914.511999999231,1
"e1",7553574,"Self-Triangle Task",2,106,"btriangle.png","You","Match ","Match ",799.93200000003,1
"e1",7553574,"Self-Triangle Task",2,107,"btriangle.png","Stranger","Mismatch ","Mismatch ",1008.56499999849,1
"e1",7553574,"Self-Triangle Task",2,108,"square.png","Stranger","Match ","Mismatch ",913.301999998861,0
"e1",7553574,"Self-Triangle Task",2,109,"btriangle.png","You","Match ","Match ",744.563999999256,1
"e1",7553574,"Self-Triangle Task",2,110,"square.png","You","Mismatch ","Mismatch ",1011.79899999849,1
"e1",7553574,"Self-Triangle Task",2,111,"circle.png","Friend","Match ","Match ",757.233000000007,1
"e1",7553574,"Self-Triangle Task",2,112,"circle.png","You","Mismatch ","Mismatch ",918.251999999629,1
"e1",7553574,"Self-Triangle Task",2,113,"square.png","Friend","Mismatch ","Match ",929.91499999963,0
"e1",7553574,"Self-Triangle Task",2,114,"circle.png","Friend","Match ","Match ",745.248999999254,1
"e1",7553574,"Self-Triangle Task",2,115,"square.png","You","Mismatch ","Mismatch ",708.848999998881,1
"e1",7553574,"Self-Triangle Task",2,116,"square.png","Stranger","Match ","Match ",910.198999998858,1
"e1",7553574,"Self-Triangle Task",2,117,"circle.png","Stranger","Mismatch ","Mismatch ",909.228999999992,1
"e1",7553574,"Self-Triangle Task",2,118,"circle.png","Friend","Match ","Match ",644.016999998537,1
"e1",7553574,"Self-Triangle Task",2,119,"circle.png","Friend","Match ","Match ",911.745999999635,1
"e1",7553574,"Self-Triangle Task",2,120,"circle.png","Friend","Match ","Match ",671.994999999995,1
"e1",7553574,"Self-Triangle Task",3,121,"circle.png","You","Mismatch ","Mismatch ",1309.15399999853,1
"e1",7553574,"Self-Triangle Task",3,122,"circle.png","Stranger","Mismatch ","Mismatch ",958.513999998511,1
"e1",7553574,"Self-Triangle Task",3,123,"btriangle.png","Stranger","Mismatch ","Mismatch ",779.42300000001,1
"e1",7553574,"Self-Triangle Task",3,124,"square.png","Stranger","Match ","Mismatch ",773.423999998893,0
"e1",7553574,"Self-Triangle Task",3,125,"circle.png","Friend","Match ","Match ",669.463999999629,1
"e1",7553574,"Self-Triangle Task",3,126,"square.png","Friend","Mismatch ","Mismatch ",923.184999999241,1
"e1",7553574,"Self-Triangle Task",3,127,"circle.png","Friend","Match ","Match ",818.536999998905,1
"e1",7553574,"Self-Triangle Task",3,128,"btriangle.png","Friend","Mismatch ","Mismatch ",772.465999999607,1
"e1",7553574,"Self-Triangle Task",3,129,"btriangle.png","Friend","Mismatch ","Mismatch ",656.079000000027,1
"e1",7553574,"Self-Triangle Task",3,130,"circle.png","You","Mismatch ","Match ",940.172999999253,0
"e1",7553574,"Self-Triangle Task",3,131,"btriangle.png","You","Match ","Mismatch ",957.374999998487,0
"e1",7553574,"Self-Triangle Task",3,132,"circle.png","Friend","Match ","Match ",764.820000000007,1
"e1",7553574,"Self-Triangle Task",3,133,"circle.png","Friend","Match ","Match ",775.502999998862,1
"e1",7553574,"Self-Triangle Task",3,134,"square.png","You","Mismatch ","Mismatch ",874.539999999281,1
"e1",7553574,"Self-Triangle Task",3,135,"circle.png","Friend","Match ","Match ",794.523999999976,1
"e1",7553574,"Self-Triangle Task",3,136,"square.png","You","Mismatch ","Mismatch ",924.901999998896,1
"e1",7553574,"Self-Triangle Task",3,137,"square.png","Stranger","Match ","Mismatch ",763.18799999851,0
"e1",7553574,"Self-Triangle Task",3,138,"square.png","You","Mismatch ","Mismatch ",916.659999999974,1
"e1",7553574,"Self-Triangle Task",3,139,"btriangle.png","Friend","Mismatch ","Mismatch ",866.596999999601,1
"e1",7553574,"Self-Triangle Task",3,140,"btriangle.png","You","Match ","Match ",893.300999999978,1
"e1",7553574,"Self-Triangle Task",3,141,"btriangle.png","You","Match ","Match ",816.700000000012,1
"e1",7553574,"Self-Triangle Task",3,142,"square.png","Friend","Mismatch ","Mismatch ",1059.17700000003,1
"e1",7553574,"Self-Triangle Task",3,143,"btriangle.png","Stranger","Mismatch ","Mismatch ",919.806999999273,1
"e1",7553574,"Self-Triangle Task",3,144,"square.png","Stranger","Match ","Match ",1324.34199999965,1
"e1",7553574,"Self-Triangle Task",3,145,"square.png","You","Mismatch ","Mismatch ",798.564999999653,1
"e1",7553574,"Self-Triangle Task",3,146,"btriangle.png","You","Match ","Match ",835.170999999274,1
"e1",7553574,"Self-Triangle Task",3,147,"circle.png","Friend","Match ","Match ",985.814999998896,1
"e1",7553574,"Self-Triangle Task",3,148,"btriangle.png","You","Match ","Match ",798.639999999607,1
"e1",7553574,"Self-Triangle Task",3,149,"circle.png","Stranger","Mismatch ","Match ",813.953999998514,0
"e1",7553574,"Self-Triangle Task",3,150,"btriangle.png","You","Match ","Match ",774.623999999254,1
"e1",7553574,"Self-Triangle Task",3,151,"square.png","You","Mismatch ","Mismatch ",575.326999998884,1
"e1",7553574,"Self-Triangle Task",3,152,"btriangle.png","Friend","Mismatch ","Mismatch ",789.91499999963,1
"e1",7553574,"Self-Triangle Task",3,153,"btriangle.png","You","Match ","Match ",766.606999998912,1
"e1",7553574,"Self-Triangle Task",3,154,"circle.png","You","Mismatch ","Mismatch ",821.168999999994,1
"e1",7553574,"Self-Triangle Task",3,155,"square.png","Stranger","Match ","Match ",985.926999999676,1
"e1",7553574,"Self-Triangle Task",3,156,"btriangle.png","Stranger","Mismatch ","Mismatch ",1086.67599999893,1
"e1",7553574,"Self-Triangle Task",3,157,"square.png","Stranger","Match ","Match ",922.653999998933,1
"e1",7553574,"Self-Triangle Task",3,158,"square.png","Stranger","Match ","Match ",689.215999999666,1
"e1",7553574,"Self-Triangle Task",3,159,"square.png","Friend","Mismatch ","Mismatch ",642.872999998857,1
"e1",7553574,"Self-Triangle Task",3,160,"circle.png","Stranger","Mismatch ","Mismatch ",834.582999999984,1
"e1",7553574,"Self-Triangle Task",3,161,"btriangle.png","You","Match ","Match ",625.267999999574,1
"e1",7553574,"Self-Triangle Task",3,162,"square.png","Stranger","Match ","Match ",749.963999999571,1
"e1",7553574,"Self-Triangle Task",3,163,"square.png","Friend","Mismatch ","Match ",687.964999999618,0
"e1",7553574,"Self-Triangle Task",3,164,"square.png","Friend","Mismatch ","Mismatch ",588.331000000006,1
"e1",7553574,"Self-Triangle Task",3,165,"square.png","Stranger","Match ","Mismatch ",732.01299999957,0
"e1",7553574,"Self-Triangle Task",3,166,"circle.png","Friend","Match ","Mismatch ",761.347999998834,0
"e1",7553574,"Self-Triangle Task",3,167,"circle.png","Friend","Match ","Match ",745.36099999852,1
"e1",7553574,"Self-Triangle Task",3,168,"circle.png","Stranger","Mismatch ","Mismatch ",920.138999999268,1
"e1",7553574,"Self-Triangle Task",3,169,"btriangle.png","You","Match ","Match ",735.854999999283,1
"e1",7553574,"Self-Triangle Task",3,170,"square.png","Stranger","Match ","Match ",825.883999999263,1
"e1",7553574,"Self-Triangle Task",3,171,"circle.png","Friend","Match ","Mismatch ",809.475999999675,0
"e1",7553574,"Self-Triangle Task",3,172,"circle.png","Stranger","Mismatch ","Mismatch ",982.928999999305,1
"e1",7553574,"Self-Triangle Task",3,173,"btriangle.png","Stranger","Mismatch ","Mismatch ",837.311999998521,1
"e1",7553574,"Self-Triangle Task",3,174,"circle.png","You","Mismatch ","Mismatch ",830.652999999234,1
"e1",7553574,"Self-Triangle Task",3,175,"square.png","Stranger","Match ","Match ",866.601999999955,1
"e1",7553574,"Self-Triangle Task",3,176,"btriangle.png","Stranger","Mismatch ","Mismatch ",876.634999999311,1
"e1",7553574,"Self-Triangle Task",3,177,"btriangle.png","Friend","Mismatch ","Mismatch ",1127.3409999992,1
"e1",7553574,"Self-Triangle Task",3,178,"circle.png","Friend","Match ","Match ",950.067000000156,1
"e1",7553574,"Self-Triangle Task",3,179,"btriangle.png","You","Match ","Match ",838.556999999215,1
"e1",7553574,"Self-Triangle Task",3,180,"circle.png","You","Mismatch ","Mismatch ",842.876000000047,1
"e1",7553615,"Self-Triangle Task",1,1,"btriangle.png","You","Match ","Match ",922.881999999998,1
"e1",7553615,"Self-Triangle Task",1,2,"square.png","You","Mismatch ","Mismatch ",846.559999999256,1
"e1",7553615,"Self-Triangle Task",1,3,"circle.png","Friend","Match ","Match ",699.436999997022,1
"e1",7553615,"Self-Triangle Task",1,4,"circle.png","Stranger","Mismatch ","Match ",966.560000000012,0
"e1",7553615,"Self-Triangle Task",1,5,"square.png","Stranger","Match ","Mismatch ",640.646999997771,0
"e1",7553615,"Self-Triangle Task",1,6,"circle.png","Friend","Match ","Match ",744.42699999777,1
"e1",7553615,"Self-Triangle Task",1,7,"square.png","Stranger","Match ","Mismatch ",749.945999999982,0
"e1",7553615,"Self-Triangle Task",1,8,"circle.png","You","Mismatch ","Mismatch ",864.175999997024,1
"e1",7553615,"Self-Triangle Task",1,9,"square.png","Friend","Mismatch ","Mismatch ",929.116999997772,1
"e1",7553615,"Self-Triangle Task",1,10,"btriangle.png","You","Match ","Match ",757.972999999998,1
"e1",7553615,"Self-Triangle Task",1,11,"square.png","Stranger","Match ","Mismatch ",1016.55599999998,0
"e1",7553615,"Self-Triangle Task",1,12,"square.png","Friend","Mismatch ","Mismatch ",1038.83099999776,1
"e1",7553615,"Self-Triangle Task",1,13,"square.png","Friend","Mismatch ","Mismatch ",915.629999997764,1
"e1",7553615,"Self-Triangle Task",1,14,"btriangle.png","You","Match ","Match ",737.664999999994,1
"e1",7553615,"Self-Triangle Task",1,15,"circle.png","Friend","Match ","Match ",1036.951,1
"e1",7553615,"Self-Triangle Task",1,16,"circle.png","Stranger","Mismatch ","Mismatch ",755.562999997026,1
"e1",7553615,"Self-Triangle Task",1,17,"circle.png","Friend","Match ","Match ",925.769999998505,1
"e1",7553615,"Self-Triangle Task",1,18,"btriangle.png","You","Match ","Match ",560.847999999998,1
"e1",7553615,"Self-Triangle Task",1,19,"btriangle.png","Stranger","Mismatch ","Mismatch ",901.8329999985,1
"e1",7553615,"Self-Triangle Task",1,20,"btriangle.png","Friend","Mismatch ","Mismatch ",898.068999999989,1
"e1",7553615,"Self-Triangle Task",1,21,"square.png","Stranger","Match ","Match ",1014.06299999927,1
"e1",7553615,"Self-Triangle Task",1,22,"square.png","Stranger","Match ","Match ",801.692999999243,1
"e1",7553615,"Self-Triangle Task",1,23,"square.png","Stranger","Match ","Match ",752.317999999243,1
"e1",7553615,"Self-Triangle Task",1,24,"circle.png","Friend","Match ","Match ",837.024999997026,1
"e1",7553615,"Self-Triangle Task",1,25,"btriangle.png","You","Match ","Match ",716.605999999971,1
"e1",7553615,"Self-Triangle Task",1,26,"btriangle.png","Friend","Mismatch ","Mismatch ",783.23899999776,1
"e1",7553615,"Self-Triangle Task",1,27,"btriangle.png","Friend","Mismatch ","Mismatch ",918.379999997007,1
"e1",7553615,"Self-Triangle Task",1,28,"btriangle.png","Friend","Mismatch ","Mismatch ",624.247999999265,1
"e1",7553615,"Self-Triangle Task",1,29,"circle.png","Stranger","Mismatch ","Mismatch ",915.477000000014,1
"e1",7553615,"Self-Triangle Task",1,30,"square.png","Stranger","Match ","Match ",941.002999998513,1
"e1",7553615,"Self-Triangle Task",1,31,"btriangle.png","Stranger","Mismatch ","Mismatch ",799.927000000025,1
"e1",7553615,"Self-Triangle Task",1,32,"square.png","Stranger","Match ","Match ",1036.89499999926,1
"e1",7553615,"Self-Triangle Task",1,33,"square.png","Stranger","Match ","Match ",931.29899999703,1
"e1",7553615,"Self-Triangle Task",1,34,"btriangle.png","You","Match ","Match ",669.874999998516,1
"e1",7553615,"Self-Triangle Task",1,35,"square.png","Friend","Mismatch ","Mismatch ",1057.81199999852,1
"e1",7553615,"Self-Triangle Task",1,36,"circle.png","You","Mismatch ","Mismatch ",915.362999997014,1
"e1",7553615,"Self-Triangle Task",1,37,"btriangle.png","Stranger","Mismatch ","Mismatch ",977.890999999247,1
"e1",7553615,"Self-Triangle Task",1,38,"circle.png","Friend","Match ","Match ",883.244999999966,1
"e1",7553615,"Self-Triangle Task",1,39,"circle.png","Stranger","Mismatch ","Mismatch ",793.122999999992,1
"e1",7553615,"Self-Triangle Task",1,40,"square.png","Stranger","Match ","Match ",1166.50799999776,1
"e1",7553615,"Self-Triangle Task",1,41,"square.png","You","Mismatch ","Mismatch ",749.934999999969,1
"e1",7553615,"Self-Triangle Task",1,42,"square.png","You","Mismatch ","Mismatch ",733.276000000042,1
"e1",7553615,"Self-Triangle Task",1,43,"btriangle.png","You","Match ","Match ",718.483999999269,1
"e1",7553615,"Self-Triangle Task",1,44,"circle.png","Friend","Match ","Match ",533.323000000004,1
"e1",7553615,"Self-Triangle Task",1,45,"circle.png","Friend","Match ","Match ",873.239999997779,1
"e1",7553615,"Self-Triangle Task",1,46,"btriangle.png","Stranger","Mismatch ","Mismatch ",880.408999997017,1
"e1",7553615,"Self-Triangle Task",1,47,"circle.png","Stranger","Mismatch ","Mismatch ",732.159999997762,1
"e1",7553615,"Self-Triangle Task",1,48,"circle.png","Friend","Match ","Match ",721.116999997757,1
"e1",7553615,"Self-Triangle Task",1,49,"circle.png","Friend","Match ","Match ",576.75199999701,1
"e1",7553615,"Self-Triangle Task",1,50,"square.png","Friend","Mismatch ","Mismatch ",731.183999997011,1
"e1",7553615,"Self-Triangle Task",1,51,"circle.png","You","Mismatch ","Mismatch ",752.925999997766,1
"e1",7553615,"Self-Triangle Task",1,52,"btriangle.png","You","Match ","Match ",760.338999998523,1
"e1",7553615,"Self-Triangle Task",1,53,"circle.png","You","Mismatch ","Mismatch ",793.756999999256,1
"e1",7553615,"Self-Triangle Task",1,54,"square.png","You","Mismatch ","Mismatch ",728.448999997752,1
"e1",7553615,"Self-Triangle Task",1,55,"square.png","You","Mismatch ","Mismatch ",696.194999998523,1
"e1",7553615,"Self-Triangle Task",1,56,"btriangle.png","You","Match ","Match ",625.153999997769,1
"e1",7553615,"Self-Triangle Task",1,57,"btriangle.png","You","Match ","Match ",816.586000000039,1
"e1",7553615,"Self-Triangle Task",1,58,"btriangle.png","Friend","Mismatch ","Mismatch ",683.282000000036,1
"e1",7553615,"Self-Triangle Task",1,59,"btriangle.png","Stranger","Mismatch ","Match ",639.757999999245,0
"e1",7553615,"Self-Triangle Task",1,60,"circle.png","You","Mismatch ","Mismatch ",828.724999998522,1
"e1",7553615,"Self-Triangle Task",2,61,"square.png","Friend","Mismatch ","Mismatch ",1156.27799999999,1
"e1",7553615,"Self-Triangle Task",2,62,"btriangle.png","Stranger","Mismatch ","Mismatch ",1018.64799999926,1
"e1",7553615,"Self-Triangle Task",2,63,"btriangle.png","Stranger","Mismatch ","Mismatch ",747.31299999851,1
"e1",7553615,"Self-Triangle Task",2,64,"btriangle.png","You","Match ","Match ",757.505999997025,1
"e1",7553615,"Self-Triangle Task",2,65,"square.png","Stranger","Match ","Mismatch ",677.513999999268,0
"e1",7553615,"Self-Triangle Task",2,66,"circle.png","Friend","Match ","Match ",721.350999997754,1
"e1",7553615,"Self-Triangle Task",2,67,"btriangle.png","Stranger","Mismatch ","Mismatch ",797.396999999241,1
"e1",7553615,"Self-Triangle Task",2,68,"btriangle.png","Friend","Mismatch ","Mismatch ",836.087999997777,1
"e1",7553615,"Self-Triangle Task",2,69,"btriangle.png","You","Match ","Match ",780.670999998518,1
"e1",7553615,"Self-Triangle Task",2,70,"btriangle.png","Stranger","Mismatch ","Mismatch ",929.519999996992,1
"e1",7553615,"Self-Triangle Task",2,71,"square.png","Stranger","Match ","Match ",704.486999996996,1
"e1",7553615,"Self-Triangle Task",2,72,"square.png","Stranger","Match ","Match ",699.945999999996,1
"e1",7553615,"Self-Triangle Task",2,73,"square.png","Friend","Mismatch ","Mismatch ",710.464999998512,1
"e1",7553615,"Self-Triangle Task",2,74,"circle.png","Friend","Match ","Match ",719.688000000024,1
"e1",7553615,"Self-Triangle Task",2,75,"circle.png","Friend","Match ","Match ",589.32899999927,1
"e1",7553615,"Self-Triangle Task",2,76,"circle.png","Friend","Match ","Match ",749.924999999988,1
"e1",7553615,"Self-Triangle Task",2,77,"btriangle.png","Friend","Mismatch ","Mismatch ",715.162000000011,1
"e1",7553615,"Self-Triangle Task",2,78,"circle.png","Stranger","Mismatch ","Mismatch ",719.974999999278,1
"e1",7553615,"Self-Triangle Task",2,79,"square.png","Stranger","Match ","Match ",890.618999998493,1
"e1",7553615,"Self-Triangle Task",2,80,"circle.png","Friend","Match ","Match ",766.598999999987,1
"e1",7553615,"Self-Triangle Task",2,81,"square.png","Stranger","Match ","Mismatch ",783.272999999986,0
"e1",7553615,"Self-Triangle Task",2,82,"square.png","Friend","Mismatch ","Mismatch ",820.878999997047,1
"e1",7553615,"Self-Triangle Task",2,83,"btriangle.png","Friend","Mismatch ","Match ",711.128999997745,0
"e1",7553615,"Self-Triangle Task",2,84,"circle.png","You","Mismatch ","Mismatch ",764.841999999247,1
"e1",7553615,"Self-Triangle Task",2,85,"square.png","Stranger","Match ","Mismatch ",839.446999999229,0
"e1",7553615,"Self-Triangle Task",2,86,"btriangle.png","You","Match ","Match ",689.539999999979,1
"e1",7553615,"Self-Triangle Task",2,87,"btriangle.png","You","Match ","Match ",743.819000000018,1
"e1",7553615,"Self-Triangle Task",2,88,"circle.png","Stranger","Mismatch ","Mismatch ",1220.60800000001,1
"e1",7553615,"Self-Triangle Task",2,89,"circle.png","Stranger","Mismatch ","Mismatch ",1173.69299999776,1
"e1",7553615,"Self-Triangle Task",2,90,"square.png","You","Mismatch ","Mismatch ",865.488999998488,1
"e1",7553615,"Self-Triangle Task",2,91,"btriangle.png","You","Match ","Match ",828.303999997792,1
"e1",7553615,"Self-Triangle Task",2,92,"square.png","Stranger","Match ","Match ",1123.66700000002,1
"e1",7553615,"Self-Triangle Task",2,93,"circle.png","You","Mismatch ","Mismatch ",823.243999997736,1
"e1",7553615,"Self-Triangle Task",2,94,"circle.png","Stranger","Mismatch ","Mismatch ",826.904999997001,1
"e1",7553615,"Self-Triangle Task",2,95,"btriangle.png","You","Match ","Match ",764.764999999257,1
"e1",7553615,"Self-Triangle Task",2,96,"circle.png","You","Mismatch ","Mismatch ",1040.480999997,1
"e1",7553615,"Self-Triangle Task",2,97,"btriangle.png","You","Match ","Match ",644.191999999282,1
"e1",7553615,"Self-Triangle Task",2,98,"square.png","You","Mismatch ","Mismatch ",671.955999999249,1
"e1",7553615,"Self-Triangle Task",2,99,"square.png","Stranger","Match ","Match ",713.80699999776,1
"e1",7553615,"Self-Triangle Task",2,100,"square.png","Stranger","Match ","Match ",1152.315,1
"e1",7553615,"Self-Triangle Task",2,101,"circle.png","Friend","Match ","Match ",616.625999999989,1
"e1",7553615,"Self-Triangle Task",2,102,"square.png","You","Mismatch ","Mismatch ",802.164999997767,1
"e1",7553615,"Self-Triangle Task",2,103,"square.png","Friend","Mismatch ","Mismatch ",904.779999997758,1
"e1",7553615,"Self-Triangle Task",2,104,"btriangle.png","You","Match ","Match ",809.603999997023,1
"e1",7553615,"Self-Triangle Task",2,105,"circle.png","You","Mismatch ","Mismatch ",877.535999997752,1
"e1",7553615,"Self-Triangle Task",2,106,"circle.png","Friend","Match ","Match ",758.390000000014,1
"e1",7553615,"Self-Triangle Task",2,107,"circle.png","Friend","Match ","Match ",707.706999999238,1
"e1",7553615,"Self-Triangle Task",2,108,"square.png","You","Mismatch ","Mismatch ",877.614000000001,1
"e1",7553615,"Self-Triangle Task",2,109,"btriangle.png","You","Match ","Match ",712.470999998506,1
"e1",7553615,"Self-Triangle Task",2,110,"circle.png","Friend","Match ","Match ",599.957999999984,1
"e1",7553615,"Self-Triangle Task",2,111,"circle.png","Friend","Match ","Match ",699.954000000027,1
"e1",7553615,"Self-Triangle Task",2,112,"circle.png","You","Mismatch ","Mismatch ",766.598999999987,1
"e1",7553615,"Self-Triangle Task",2,113,"square.png","You","Mismatch ","Mismatch ",685.529999999271,1
"e1",7553615,"Self-Triangle Task",2,114,"btriangle.png","You","Match ","Match ",782.708999997762,1
"e1",7553615,"Self-Triangle Task",2,115,"btriangle.png","Friend","Mismatch ","Mismatch ",1080.96899999853,1
"e1",7553615,"Self-Triangle Task",2,116,"circle.png","Stranger","Mismatch ","Mismatch ",1135.13699999778,1
"e1",7553615,"Self-Triangle Task",2,117,"btriangle.png","Stranger","Mismatch ","Mismatch ",748.264999998501,1
"e1",7553615,"Self-Triangle Task",2,118,"square.png","Stranger","Match ","Match ",736.034999998519,1
"e1",7553615,"Self-Triangle Task",2,119,"square.png","Friend","Mismatch ","Mismatch ",1032.12999999925,1
"e1",7553615,"Self-Triangle Task",2,120,"btriangle.png","Friend","Mismatch ","Mismatch ",998.003999997745,1
"e1",7553615,"Self-Triangle Task",3,121,"circle.png","You","Mismatch ","Mismatch ",632.610999999277,1
"e1",7553615,"Self-Triangle Task",3,122,"btriangle.png","You","Match ","Match ",794.545999999274,1
"e1",7553615,"Self-Triangle Task",3,123,"btriangle.png","Friend","Mismatch ","Mismatch ",766.42399999703,1
"e1",7553615,"Self-Triangle Task",3,124,"square.png","You","Mismatch ","Mismatch ",794.250999999989,1
"e1",7553615,"Self-Triangle Task",3,125,"btriangle.png","You","Match ","Match ",693.628999997745,1
"e1",7553615,"Self-Triangle Task",3,126,"circle.png","Friend","Match ","Match ",721.298999999999,1
"e1",7553615,"Self-Triangle Task",3,127,"square.png","Friend","Mismatch ","Mismatch ",903.439999999246,1
"e1",7553615,"Self-Triangle Task",3,128,"square.png","You","Mismatch ","Mismatch ",758.67499999702,1
"e1",7553615,"Self-Triangle Task",3,129,"btriangle.png","You","Match ","Match ",742.386999998533,1
"e1",7553615,"Self-Triangle Task",3,130,"square.png","Friend","Mismatch ","Mismatch ",1279.67599999852,1
"e1",7553615,"Self-Triangle Task",3,131,"square.png","You","Mismatch ","Mismatch ",835.766000000003,1
"e1",7553615,"Self-Triangle Task",3,132,"btriangle.png","You","Match ","Match ",722.367999997048,1
"e1",7553615,"Self-Triangle Task",3,133,"btriangle.png","Stranger","Mismatch ","Mismatch ",828.205999999249,1
"e1",7553615,"Self-Triangle Task",3,134,"square.png","Stranger","Match ","Match ",940.553999997792,1
"e1",7553615,"Self-Triangle Task",3,135,"circle.png","Friend","Match ","Match ",766.598999999987,1
"e1",7553615,"Self-Triangle Task",3,136,"btriangle.png","You","Match ","Match ",535.584999999264,1
"e1",7553615,"Self-Triangle Task",3,137,"square.png","Stranger","Match ","Match ",1043.33099999925,1
"e1",7553615,"Self-Triangle Task",3,138,"btriangle.png","Stranger","Mismatch ","Mismatch ",683.272999999986,1
"e1",7553615,"Self-Triangle Task",3,139,"circle.png","Friend","Match ","Match ",727.483999997785,1
"e1",7553615,"Self-Triangle Task",3,140,"square.png","Stranger","Match ","Match ",1166.53600000002,1
"e1",7553615,"Self-Triangle Task",3,141,"square.png","Stranger","Match ","Match ",686.784999997006,1
"e1",7553615,"Self-Triangle Task",3,142,"circle.png","You","Mismatch ","Mismatch ",965.361999997753,1
"e1",7553615,"Self-Triangle Task",3,143,"circle.png","Stranger","Mismatch ","Mismatch ",1048.68899999704,1
"e1",7553615,"Self-Triangle Task",3,144,"circle.png","You","Mismatch ","Mismatch ",730.695999999996,1
"e1",7553615,"Self-Triangle Task",3,145,"circle.png","Stranger","Mismatch ","Mismatch ",826.651000000013,1
"e1",7553615,"Self-Triangle Task",3,146,"btriangle.png","You","Match ","Match ",694.207999997772,1
"e1",7553615,"Self-Triangle Task",3,147,"btriangle.png","You","Match ","Match ",656.576999999234,1
"e1",7553615,"Self-Triangle Task",3,148,"square.png","You","Mismatch ","Mismatch ",810.778999997012,1
"e1",7553615,"Self-Triangle Task",3,149,"circle.png","Friend","Match ","Match ",697.091000000015,1
"e1",7553615,"Self-Triangle Task",3,150,"circle.png","Stranger","Mismatch ","Mismatch ",714.785999998508,1
"e1",7553615,"Self-Triangle Task",3,151,"square.png","Stranger","Match ","Match ",969.075999997789,1
"e1",7553615,"Self-Triangle Task",3,152,"circle.png","Stranger","Mismatch ","Mismatch ",1030.946,1
"e1",7553615,"Self-Triangle Task",3,153,"circle.png","Friend","Match ","Match ",715.330999998492,1
"e1",7553615,"Self-Triangle Task",3,154,"square.png","Friend","Mismatch ","Mismatch ",711.4389999985,1
"e1",7553615,"Self-Triangle Task",3,155,"square.png","Stranger","Match ","Match ",862.656000000017,1
"e1",7553615,"Self-Triangle Task",3,156,"btriangle.png","Friend","Mismatch ","Mismatch ",902.680999998469,1
"e1",7553615,"Self-Triangle Task",3,157,"square.png","Stranger","Match ","Match ",849.908999999985,1
"e1",7553615,"Self-Triangle Task",3,158,"btriangle.png","Stranger","Mismatch ","Mismatch ",853.496999997064,1
"e1",7553615,"Self-Triangle Task",3,159,"square.png","Stranger","Match ","Match ",828.227999998489,1
"e1",7553615,"Self-Triangle Task",3,160,"circle.png","You","Mismatch ","Mismatch ",966.571999999927,1
"e1",7553615,"Self-Triangle Task",3,161,"btriangle.png","You","Match ","Match ",632.015999997733,1
"e1",7553615,"Self-Triangle Task",3,162,"square.png","Stranger","Match ","Match ",888.949999997742,1
"e1",7553615,"Self-Triangle Task",3,163,"circle.png","You","Mismatch ","Mismatch ",725.64599999995,1
"e1",7553615,"Self-Triangle Task",3,164,"square.png","You","Mismatch ","Mismatch ",737.781999999308,1
"e1",7553615,"Self-Triangle Task",3,165,"circle.png","Friend","Match ","Match ",707.062999999267,1
"e1",7553615,"Self-Triangle Task",3,166,"square.png","Friend","Mismatch ","Mismatch ",783.17699999921,1
"e1",7553615,"Self-Triangle Task",3,167,"btriangle.png","Friend","Mismatch ","Mismatch ",798.927999999956,1
"e1",7553615,"Self-Triangle Task",3,168,"circle.png","Friend","Match ","Match ",749.939999999944,1
"e1",7553615,"Self-Triangle Task",3,169,"circle.png","Friend","Match ","Match ",633.293999999994,1
"e1",7553615,"Self-Triangle Task",3,170,"circle.png","Friend","Match ","Match ",736.122999999207,1
"e1",7553615,"Self-Triangle Task",3,171,"btriangle.png","Friend","Mismatch ","Mismatch ",526.296999997809,1
"e1",7553615,"Self-Triangle Task",3,172,"btriangle.png","Stranger","Mismatch ","Mismatch ",659.616000000038,1
"e1",7553615,"Self-Triangle Task",3,173,"circle.png","Stranger","Mismatch ","Mismatch ",983.23199999996,1
"e1",7553615,"Self-Triangle Task",3,174,"btriangle.png","You","Match ","Match ",674.19299999997,1
"e1",7553615,"Self-Triangle Task",3,175,"square.png","Stranger","Match ","Mismatch ",749.932000000146,0
"e1",7553615,"Self-Triangle Task",3,176,"btriangle.png","You","Match ","Match ",690.124999999302,1
"e1",7553615,"Self-Triangle Task",3,177,"btriangle.png","Stranger","Mismatch ","Mismatch ",974.586999998544,1
"e1",7553615,"Self-Triangle Task",3,178,"circle.png","Friend","Match ","Match ",599.955000000191,1
"e1",7553615,"Self-Triangle Task",3,179,"square.png","Friend","Mismatch ","Mismatch ",1058.73399999703,1
"e1",7553615,"Self-Triangle Task",3,180,"btriangle.png","Friend","Mismatch ","Mismatch ",924.376999997068,1
"e1",7553628,"Self-Triangle Task",1,1,"circle.png","Friend","Match ","Match ",825.866999999998,1
"e1",7553628,"Self-Triangle Task",1,2,"btriangle.png","You","Match ","Match ",389.08499999404,1
"e1",7553628,"Self-Triangle Task",1,3,"circle.png","You","Mismatch ","Match ",486.72799999702,0
"e1",7553628,"Self-Triangle Task",1,4,"square.png","Stranger","Match ","Match ",920.201999997022,1
"e1",7553628,"Self-Triangle Task",1,5,"square.png","Stranger","Match ","Match ",887.038999999997,1
"e1",7553628,"Self-Triangle Task",1,6,"circle.png","Friend","Match ","Match ",667.356000000007,1
"e1",7553628,"Self-Triangle Task",1,7,"square.png","Stranger","Match ","Mismatch ",587.93499998808,0
"e1",7553628,"Self-Triangle Task",1,8,"circle.png","You","Mismatch ","Match ",538.138999999996,0
"e1",7553628,"Self-Triangle Task",1,9,"circle.png","Friend","Match ","Match ",507.823999991058,1
"e1",7553628,"Self-Triangle Task",1,10,"circle.png","You","Mismatch ","Mismatch ",835.379999997022,1
"e1",7553628,"Self-Triangle Task",1,11,"circle.png","Stranger","Mismatch ","Mismatch ",907.312999988077,1
"e1",7553628,"Self-Triangle Task",1,12,"square.png","Friend","Mismatch ","Mismatch ",931.493999988073,1
"e1",7553628,"Self-Triangle Task",1,13,"circle.png","Stranger","Mismatch ","Mismatch ",919.053,1
"e1",7553628,"Self-Triangle Task",1,14,"square.png","You","Mismatch ","Mismatch ",603.518999997017,1
"e1",7553628,"Self-Triangle Task",1,15,"btriangle.png","You","Match ","Match ",771.676999999996,1
"e1",7553628,"Self-Triangle Task",1,16,"btriangle.png","Friend","Mismatch ","Mismatch ",1137.96599999702,1
"e1",7553628,"Self-Triangle Task",1,17,"circle.png","You","Mismatch ","Mismatch ",923.878999991066,1
"e1",7553628,"Self-Triangle Task",1,18,"circle.png","Stranger","Mismatch ","Mismatch ",935.22799999702,1
"e1",7553628,"Self-Triangle Task",1,19,"square.png","Stranger","Match ","Match ",850.205999997022,1
"e1",7553628,"Self-Triangle Task",1,20,"circle.png","Friend","Match ","Match ",818.773999988072,1
"e1",7553628,"Self-Triangle Task",1,21,"circle.png","Friend","Match ","Match ",652.727999991053,1
"e1",7553628,"Self-Triangle Task",1,22,"square.png","You","Mismatch ","Mismatch ",900.273999997022,1
"e1",7553628,"Self-Triangle Task",1,23,"btriangle.png","Stranger","Mismatch ","Mismatch ",1017.64999999999,1
"e1",7553628,"Self-Triangle Task",1,24,"circle.png","Friend","Match ","Match ",804.417999988073,1
"e1",7553628,"Self-Triangle Task",1,25,"square.png","Stranger","Match ","Match ",853.139999991065,1
"e1",7553628,"Self-Triangle Task",1,26,"btriangle.png","Friend","Mismatch ","Mismatch ",750.299999988085,1
"e1",7553628,"Self-Triangle Task",1,27,"square.png","Stranger","Match ","Match ",770.948999994042,1
"e1",7553628,"Self-Triangle Task",1,28,"square.png","Stranger","Match ","Match ",1233.83399999702,1
"e1",7553628,"Self-Triangle Task",1,29,"square.png","You","Mismatch ","Mismatch ",706.73799998808,1
"e1",7553628,"Self-Triangle Task",1,30,"btriangle.png","Stranger","Mismatch ","Mismatch ",1167.811,1
"e1",7553628,"Self-Triangle Task",1,31,"btriangle.png","You","Match ","Match ",853.597999988066,1
"e1",7553628,"Self-Triangle Task",1,32,"circle.png","Friend","Match ","Match ",670.057999988087,1
"e1",7553628,"Self-Triangle Task",1,33,"circle.png","Friend","Match ","Match ",803.252999991062,1
"e1",7553628,"Self-Triangle Task",1,34,"square.png","Friend","Mismatch ","Mismatch ",754.501999988075,1
"e1",7553628,"Self-Triangle Task",1,35,"btriangle.png","You","Match ","Match ",722.898999988072,1
"e1",7553628,"Self-Triangle Task",1,36,"btriangle.png","You","Match ","Match ",438.652999994054,1
"e1",7553628,"Self-Triangle Task",1,37,"square.png","Stranger","Match ","Mismatch ",602.285999991058,0
"e1",7553628,"Self-Triangle Task",1,38,"square.png","Stranger","Match ","Match ",698.644999994052,1
"e1",7553628,"Self-Triangle Task",1,39,"circle.png","Friend","Match ","Match ",501.635999991064,1
"e1",7553628,"Self-Triangle Task",1,40,"btriangle.png","You","Match ","Match ",468.39899999107,1
"e1",7553628,"Self-Triangle Task",1,41,"btriangle.png","You","Match ","Match ",601.757000000012,1
"e1",7553628,"Self-Triangle Task",1,42,"btriangle.png","Friend","Mismatch ","Mismatch ",921.003999988083,1
"e1",7553628,"Self-Triangle Task",1,43,"square.png","Friend","Mismatch ","Mismatch ",952.778999988077,1
"e1",7553628,"Self-Triangle Task",1,44,"btriangle.png","Friend","Mismatch ","Match ",586.936999994039,0
"e1",7553628,"Self-Triangle Task",1,45,"circle.png","Friend","Match ","Match ",706.752999999997,1
"e1",7553628,"Self-Triangle Task",1,46,"square.png","Friend","Mismatch ","Mismatch ",898.771999988065,1
"e1",7553628,"Self-Triangle Task",1,47,"btriangle.png","Friend","Mismatch ","Mismatch ",967.622999999963,1
"e1",7553628,"Self-Triangle Task",1,48,"btriangle.png","You","Match ","Match ",867.591999999975,1
"e1",7553628,"Self-Triangle Task",1,49,"circle.png","Stranger","Mismatch ","Mismatch ",1055.24800000002,1
"e1",7553628,"Self-Triangle Task",1,50,"btriangle.png","You","Match ","Match ",888.21799998809,1
"e1",7553628,"Self-Triangle Task",1,51,"btriangle.png","Stranger","Mismatch ","Mismatch ",804.935000000027,1
"e1",7553628,"Self-Triangle Task",1,52,"square.png","You","Mismatch ","Mismatch ",603.627999994031,1
"e1",7553628,"Self-Triangle Task",1,53,"btriangle.png","You","Match ","Match ",822.774999999994,1
"e1",7553628,"Self-Triangle Task",1,54,"square.png","Stranger","Match ","Mismatch ",649.889999994048,0
"e1",7553628,"Self-Triangle Task",1,55,"square.png","Friend","Mismatch ","Match ",720.718999994046,0
"e1",7553628,"Self-Triangle Task",1,56,"btriangle.png","Stranger","Mismatch ","Mismatch ",740.587999994052,1
"e1",7553628,"Self-Triangle Task",1,57,"circle.png","You","Mismatch ","Mismatch ",621.040999999997,1
"e1",7553628,"Self-Triangle Task",1,58,"btriangle.png","Stranger","Mismatch ","Mismatch ",754.774999988091,1
"e1",7553628,"Self-Triangle Task",1,59,"square.png","You","Mismatch ","Mismatch ",753.302999997017,1
"e1",7553628,"Self-Triangle Task",1,60,"circle.png","Stranger","Mismatch ","Mismatch ",603.789999988076,1
"e1",7553628,"Self-Triangle Task",2,61,"square.png","Friend","Mismatch ","Mismatch ",823.686999988073,1
"e1",7553628,"Self-Triangle Task",2,62,"square.png","You","Mismatch ","Mismatch ",786.452999991074,1
"e1",7553628,"Self-Triangle Task",2,63,"square.png","Friend","Mismatch ","Mismatch ",487.45899998807,1
"e1",7553628,"Self-Triangle Task",2,64,"square.png","Stranger","Match ","Match ",870.736999994027,1
"e1",7553628,"Self-Triangle Task",2,65,"square.png","Stranger","Match ","Match ",703.599999988073,1
"e1",7553628,"Self-Triangle Task",2,66,"square.png","You","Mismatch ","Mismatch ",782.551999999967,1
"e1",7553628,"Self-Triangle Task",2,67,"square.png","You","Mismatch ","Mismatch ",620.468999997014,1
"e1",7553628,"Self-Triangle Task",2,68,"btriangle.png","You","Match ","Match ",937.475999988092,1
"e1",7553628,"Self-Triangle Task",2,69,"btriangle.png","Stranger","Mismatch ","Mismatch ",838.400000000023,1
"e1",7553628,"Self-Triangle Task",2,70,"btriangle.png","Stranger","Mismatch ","Mismatch ",507.866999999998,1
"e1",7553628,"Self-Triangle Task",2,71,"btriangle.png","You","Match ","Mismatch ",703.304999997024,0
"e1",7553628,"Self-Triangle Task",2,72,"circle.png","Stranger","Mismatch ","Mismatch ",951.72299999703,1
"e1",7553628,"Self-Triangle Task",2,73,"circle.png","Friend","Match ","Match ",887.062999996997,1
"e1",7553628,"Self-Triangle Task",2,74,"btriangle.png","You","Match ","Match ",839.423999999999,1
"e1",7553628,"Self-Triangle Task",2,75,"btriangle.png","Friend","Mismatch ","Mismatch ",888.010999988066,1
"e1",7553628,"Self-Triangle Task",2,76,"circle.png","Friend","Match ","Match ",886.055999988108,1
"e1",7553628,"Self-Triangle Task",2,77,"btriangle.png","You","Match ","Match ",871.755999999994,1
"e1",7553628,"Self-Triangle Task",2,78,"btriangle.png","Stranger","Mismatch ","Mismatch ",720.04399999103,1
"e1",7553628,"Self-Triangle Task",2,79,"circle.png","Stranger","Mismatch ","Mismatch ",917.611000000034,1
"e1",7553628,"Self-Triangle Task",2,80,"square.png","You","Mismatch ","Mismatch ",654.694999997038,1
"e1",7553628,"Self-Triangle Task",2,81,"square.png","Friend","Mismatch ","Mismatch ",839.33899999701,1
"e1",7553628,"Self-Triangle Task",2,82,"circle.png","You","Mismatch ","Match ",900.504999994067,0
"e1",7553628,"Self-Triangle Task",2,83,"circle.png","Stranger","Mismatch ","Mismatch ",783.734999997017,1
"e1",7553628,"Self-Triangle Task",2,84,"btriangle.png","Friend","Mismatch ","Mismatch ",991.006999988051,1
"e1",7553628,"Self-Triangle Task",2,85,"square.png","Stranger","Match ","Mismatch ",537.682999988087,0
"e1",7553628,"Self-Triangle Task",2,86,"square.png","Friend","Mismatch ","Mismatch ",902.374999991036,1
"e1",7553628,"Self-Triangle Task",2,87,"square.png","Stranger","Match ","Match ",670.515999988071,1
"e1",7553628,"Self-Triangle Task",2,88,"btriangle.png","Friend","Mismatch ","Mismatch ",1020.4749999881,1
"e1",7553628,"Self-Triangle Task",2,89,"square.png","You","Mismatch ","Mismatch ",1317.04799998808,1
"e1",7553628,"Self-Triangle Task",2,90,"square.png","Friend","Mismatch ","Mismatch ",821.684999999998,1
"e1",7553628,"Self-Triangle Task",2,91,"circle.png","Friend","Match ","Match ",737.386999997019,1
"e1",7553628,"Self-Triangle Task",2,92,"circle.png","Friend","Match ","Match ",917.625999999989,1
"e1",7553628,"Self-Triangle Task",2,93,"circle.png","Friend","Match ","Match ",556.204999988084,1
"e1",7553628,"Self-Triangle Task",2,94,"circle.png","Friend","Match ","Match ",520.079000000027,1
"e1",7553628,"Self-Triangle Task",2,95,"btriangle.png","You","Match ","Mismatch ",702.894999988086,0
"e1",7553628,"Self-Triangle Task",2,96,"circle.png","Stranger","Mismatch ","Mismatch ",650.681999999972,1
"e1",7553628,"Self-Triangle Task",2,97,"square.png","Stranger","Match ","Mismatch ",635.320999988064,0
"e1",7553628,"Self-Triangle Task",2,98,"btriangle.png","You","Match ","Match ",768.955000000016,1
"e1",7553628,"Self-Triangle Task",2,99,"square.png","Stranger","Match ","Match ",952.422999988077,1
"e1",7553628,"Self-Triangle Task",2,100,"circle.png","Friend","Match ","Match ",551.690999988059,1
"e1",7553628,"Self-Triangle Task",2,101,"btriangle.png","You","Match ","Match ",517.221000000078,1
"e1",7553628,"Self-Triangle Task",2,102,"circle.png","Friend","Match ","Match ",651.989999999991,1
"e1",7553628,"Self-Triangle Task",2,103,"circle.png","Stranger","Mismatch ","Mismatch ",770.331999988062,1
"e1",7553628,"Self-Triangle Task",2,104,"circle.png","You","Mismatch ","Mismatch ",700.109999988053,1
"e1",7553628,"Self-Triangle Task",2,105,"square.png","Stranger","Match ","Match ",620.015999997035,1
"e1",7553628,"Self-Triangle Task",2,106,"btriangle.png","Stranger","Mismatch ","Mismatch ",724.054999991087,1
"e1",7553628,"Self-Triangle Task",2,107,"circle.png","You","Mismatch ","Mismatch ",748.470999994024,1
"e1",7553628,"Self-Triangle Task",2,108,"circle.png","You","Mismatch ","Match ",641.320999988064,0
"e1",7553628,"Self-Triangle Task",2,109,"circle.png","Friend","Match ","Match ",950.987999999954,1
"e1",7553628,"Self-Triangle Task",2,110,"square.png","Stranger","Match ","Match ",1057.19699999999,1
"e1",7553628,"Self-Triangle Task",2,111,"circle.png","Friend","Match ","Match ",1054.02899998811,1
"e1",7553628,"Self-Triangle Task",2,112,"square.png","Stranger","Match ","Match ",821.304999997024,1
"e1",7553628,"Self-Triangle Task",2,113,"btriangle.png","Friend","Mismatch ","Mismatch ",802.935999988054,1
"e1",7553628,"Self-Triangle Task",2,114,"square.png","Stranger","Match ","Match ",937.699999991048,1
"e1",7553628,"Self-Triangle Task",2,115,"btriangle.png","You","Match ","Match ",819.420999988099,1
"e1",7553628,"Self-Triangle Task",2,116,"btriangle.png","Stranger","Mismatch ","Match ",568.158999988053,0
"e1",7553628,"Self-Triangle Task",2,117,"btriangle.png","You","Match ","Match ",750.715000000084,1
"e1",7553628,"Self-Triangle Task",2,118,"circle.png","You","Mismatch ","Mismatch ",852.357999994012,1
"e1",7553628,"Self-Triangle Task",2,119,"btriangle.png","Friend","Mismatch ","Mismatch ",954.306999988097,1
"e1",7553628,"Self-Triangle Task",2,120,"btriangle.png","You","Match ","Match ",867.448999999964,1
"e1",7553628,"Self-Triangle Task",3,121,"circle.png","You","Mismatch ","Mismatch ",589.737000000023,1
"e1",7553628,"Self-Triangle Task",3,122,"circle.png","Friend","Match ","Match ",750.726999997045,1
"e1",7553628,"Self-Triangle Task",3,123,"square.png","Stranger","Match ","Mismatch ",506.255999988061,0
"e1",7553628,"Self-Triangle Task",3,124,"square.png","Stranger","Match ","Match ",550.96299999702,1
"e1",7553628,"Self-Triangle Task",3,125,"circle.png","Stranger","Mismatch ","Match ",638.981999994023,0
"e1",7553628,"Self-Triangle Task",3,126,"circle.png","Friend","Match ","Match ",666.73799998808,1
"e1",7553628,"Self-Triangle Task",3,127,"square.png","Stranger","Match ","Match ",906.078999991063,1
"e1",7553628,"Self-Triangle Task",3,128,"circle.png","Stranger","Mismatch ","Mismatch ",1099.04299998807,1
"e1",7553628,"Self-Triangle Task",3,129,"circle.png","Friend","Match ","Match ",803.598999999987,1
"e1",7553628,"Self-Triangle Task",3,130,"btriangle.png","You","Match ","Match ",667.177999999956,1
"e1",7553628,"Self-Triangle Task",3,131,"btriangle.png","You","Match ","Match ",936.926999988093,1
"e1",7553628,"Self-Triangle Task",3,132,"square.png","Stranger","Match ","Mismatch ",620.816999994044,0
"e1",7553628,"Self-Triangle Task",3,133,"btriangle.png","Stranger","Mismatch ","Mismatch ",719.155000000028,1
"e1",7553628,"Self-Triangle Task",3,134,"circle.png","Friend","Match ","Match ",616.961999997031,1
"e1",7553628,"Self-Triangle Task",3,135,"btriangle.png","Friend","Mismatch ","Match ",538.132999997004,0
"e1",7553628,"Self-Triangle Task",3,136,"circle.png","Friend","Match ","Match ",637.434999988065,1
"e1",7553628,"Self-Triangle Task",3,137,"btriangle.png","Friend","Mismatch ","Mismatch ",652.053999994067,1
"e1",7553628,"Self-Triangle Task",3,138,"btriangle.png","Friend","Mismatch ","Mismatch ",505.388999996998,1
"e1",7553628,"Self-Triangle Task",3,139,"btriangle.png","Stranger","Mismatch ","Mismatch ",767.410999999964,1
"e1",7553628,"Self-Triangle Task",3,140,"btriangle.png","Friend","Mismatch ","Mismatch ",568.943999988085,1
"e1",7553628,"Self-Triangle Task",3,141,"btriangle.png","You","Match ","Match ",569.289999999979,1
"e1",7553628,"Self-Triangle Task",3,142,"circle.png","Stranger","Mismatch ","Mismatch ",671.038999988057,1
"e1",7553628,"Self-Triangle Task",3,143,"square.png","You","Mismatch ","Mismatch ",605.890999988071,1
"e1",7553628,"Self-Triangle Task",3,144,"btriangle.png","You","Match ","Match ",734.412999988068,1
"e1",7553628,"Self-Triangle Task",3,145,"btriangle.png","Stranger","Mismatch ","Mismatch ",1117.24999999703,1
"e1",7553628,"Self-Triangle Task",3,146,"circle.png","You","Mismatch ","Mismatch ",755.005999999936,1
"e1",7553628,"Self-Triangle Task",3,147,"btriangle.png","You","Match ","Match ",705.749999988067,1
"e1",7553628,"Self-Triangle Task",3,148,"square.png","Friend","Mismatch ","Mismatch ",967.672000000079,1
"e1",7553628,"Self-Triangle Task",3,149,"circle.png","Friend","Match ","Match ",753.382999994035,1
"e1",7553628,"Self-Triangle Task",3,150,"btriangle.png","You","Match ","Match ",854.537999997032,1
"e1",7553628,"Self-Triangle Task",3,151,"circle.png","Stranger","Mismatch ","Mismatch ",521.023999997007,1
"e1",7553628,"Self-Triangle Task",3,152,"circle.png","You","Mismatch ","Mismatch ",890.113999997033,1
"e1",7553628,"Self-Triangle Task",3,153,"circle.png","Friend","Match ","Match ",702.252999994031,1
"e1",7553628,"Self-Triangle Task",3,154,"circle.png","Friend","Match ","Match ",718.43999998807,1
"e1",7553628,"Self-Triangle Task",3,155,"square.png","Stranger","Match ","Match ",1100.25599998806,1
"e1",7553628,"Self-Triangle Task",3,156,"btriangle.png","You","Match ","Match ",657.605999988096,1
"e1",7553628,"Self-Triangle Task",3,157,"square.png","Stranger","Match ","Match ",721.480999994033,1
"e1",7553628,"Self-Triangle Task",3,158,"square.png","You","Mismatch ","Match ",535.110999997007,0
"e1",7553628,"Self-Triangle Task",3,159,"circle.png","You","Mismatch ","Match ",754.416999988083,0
"e1",7553628,"Self-Triangle Task",3,160,"circle.png","Stranger","Mismatch ","Mismatch ",754.866999988095,1
"e1",7553628,"Self-Triangle Task",3,161,"btriangle.png","You","Match ","Match ",502.632999991067,1
"e1",7553628,"Self-Triangle Task",3,162,"square.png","Friend","Mismatch ","Mismatch ",886.314999991038,1
"e1",7553628,"Self-Triangle Task",3,163,"square.png","You","Mismatch ","Mismatch ",816.19899998809,1
"e1",7553628,"Self-Triangle Task",3,164,"square.png","You","Mismatch ","Mismatch ",918.465999988082,1
"e1",7553628,"Self-Triangle Task",3,165,"square.png","Stranger","Match ","Mismatch ",688.282000000007,0
"e1",7553628,"Self-Triangle Task",3,166,"square.png","Stranger","Match ","Match ",686.137999997009,1
"e1",7553628,"Self-Triangle Task",3,167,"square.png","Friend","Mismatch ","Mismatch ",638.18200000003,1
"e1",7553628,"Self-Triangle Task",3,168,"btriangle.png","Stranger","Mismatch ","Mismatch ",738.319000000018,1
"e1",7553628,"Self-Triangle Task",3,169,"btriangle.png","Friend","Mismatch ","Mismatch ",1133.07700000005,1
"e1",7553628,"Self-Triangle Task",3,170,"square.png","You","Mismatch ","Mismatch ",886.750999988057,1
"e1",7553628,"Self-Triangle Task",3,171,"circle.png","Friend","Match ","Mismatch ",638.129000000074,0
"e1",7553628,"Self-Triangle Task",3,172,"btriangle.png","You","Match ","Match ",671.001999988104,1
"e1",7553628,"Self-Triangle Task",3,173,"square.png","Friend","Mismatch ","Mismatch ",604.822000000044,1
"e1",7553628,"Self-Triangle Task",3,174,"square.png","Stranger","Match ","Match ",987.737999988021,1
"e1",7553628,"Self-Triangle Task",3,175,"circle.png","You","Mismatch ","Match ",985.76099999703,0
"e1",7553628,"Self-Triangle Task",3,176,"btriangle.png","You","Match ","Match ",469.599999988102,1
"e1",7553628,"Self-Triangle Task",3,177,"circle.png","Friend","Match ","Match ",718.912999991095,1
"e1",7553628,"Self-Triangle Task",3,178,"square.png","Stranger","Match ","Match ",701.653999988106,1
"e1",7553628,"Self-Triangle Task",3,179,"btriangle.png","Stranger","Mismatch ","Mismatch ",820.136999988114,1
"e1",7553628,"Self-Triangle Task",3,180,"square.png","Friend","Mismatch ","Mismatch ",1166.078999997,1
"e1",7564921,"Self-Triangle Task",1,1,"btriangle.png","You","Match ","Mismatch ",784.799999952316,0
"e1",7564921,"Self-Triangle Task",1,2,"btriangle.png","You","Match ","Match ",587.002999999997,1
"e1",7564921,"Self-Triangle Task",1,3,"btriangle.png","Friend","Mismatch ","Mismatch ",892.997000000003,1
"e1",7564921,"Self-Triangle Task",1,4,"square.png","Stranger","Match ","Mismatch ",507.165000023844,0
"e1",7564921,"Self-Triangle Task",1,5,"circle.png","You","Mismatch ","Match ",624.339999999997,0
"e1",7564921,"Self-Triangle Task",1,6,"circle.png","Friend","Match ","Mismatch ",592.896999976161,0
"e1",7564921,"Self-Triangle Task",1,7,"square.png","Friend","Mismatch ","Match ",658.885999976163,0
"e1",7564921,"Self-Triangle Task",1,8,"circle.png","Friend","Match ","Match ",418.42900002384,1
"e1",7564921,"Self-Triangle Task",1,9,"square.png","You","Mismatch ","Match ",594.987999999998,0
"e1",7564921,"Self-Triangle Task",1,10,"square.png","You","Mismatch ","Match ",772.981,0
"e1",7564921,"Self-Triangle Task",1,11,"circle.png","You","Mismatch ","",1500.072,0
"e1",7564921,"Self-Triangle Task",1,12,"btriangle.png","You","Match ","Match ",449.082000023845,1
"e1",7564921,"Self-Triangle Task",1,13,"btriangle.png","You","Match ","Match ",424.964000000007,1
"e1",7564921,"Self-Triangle Task",1,14,"circle.png","Stranger","Mismatch ","Mismatch ",689.645000000004,1
"e1",7564921,"Self-Triangle Task",1,15,"btriangle.png","Friend","Mismatch ","Match ",703.435999952315,0
"e1",7564921,"Self-Triangle Task",1,16,"square.png","Stranger","Match ","",1499.936,0
"e1",7564921,"Self-Triangle Task",1,17,"btriangle.png","You","Match ","Match ",622.40900002385,1
"e1",7564921,"Self-Triangle Task",1,18,"square.png","Stranger","Match ","",1499.992,0
"e1",7564921,"Self-Triangle Task",1,19,"btriangle.png","Stranger","Mismatch ","Mismatch ",720.114999952319,1
"e1",7564921,"Self-Triangle Task",1,20,"square.png","Stranger","Match ","Mismatch ",508.972999999998,0
"e1",7564921,"Self-Triangle Task",1,21,"btriangle.png","Stranger","Mismatch ","",1499.859,0
"e1",7564921,"Self-Triangle Task",1,22,"circle.png","You","Mismatch ","Match ",395.805000023829,0
"e1",7564921,"Self-Triangle Task",1,23,"circle.png","Friend","Match ","Mismatch ",685.605999976164,0
"e1",7564921,"Self-Triangle Task",1,24,"circle.png","You","Mismatch ","Match ",963.518999976164,0
"e1",7564921,"Self-Triangle Task",1,25,"square.png","Friend","Mismatch ","Mismatch ",654.962,1
"e1",7564921,"Self-Triangle Task",1,26,"circle.png","Stranger","Mismatch ","Mismatch ",598.391000023839,1
"e1",7564921,"Self-Triangle Task",1,27,"btriangle.png","You","Match ","Match ",552.099999952305,1
"e1",7564921,"Self-Triangle Task",1,28,"btriangle.png","Friend","Mismatch ","Mismatch ",675.681000000011,1
"e1",7564921,"Self-Triangle Task",1,29,"btriangle.png","Friend","Mismatch ","Mismatch ",626.130999952322,1
"e1",7564921,"Self-Triangle Task",1,30,"btriangle.png","You","Match ","Match ",707.177000023832,1
"e1",7564921,"Self-Triangle Task",1,31,"btriangle.png","You","Match ","Match ",592.396999999997,1
"e1",7564921,"Self-Triangle Task",1,32,"square.png","Friend","Mismatch ","Mismatch ",569.847000000009,1
"e1",7564921,"Self-Triangle Task",1,33,"circle.png","Friend","Match ","Match ",740.95199999999,1
"e1",7564921,"Self-Triangle Task",1,34,"square.png","You","Mismatch ","Mismatch ",616.659999999974,1
"e1",7564921,"Self-Triangle Task",1,35,"btriangle.png","Stranger","Mismatch ","Mismatch ",673.891999999993,1
"e1",7564921,"Self-Triangle Task",1,36,"circle.png","Friend","Match ","Mismatch ",616.660999999993,0
"e1",7564921,"Self-Triangle Task",1,37,"btriangle.png","Stranger","Mismatch ","Mismatch ",658.179999976157,1
"e1",7564921,"Self-Triangle Task",1,38,"square.png","Stranger","Match ","Mismatch ",633.294999999984,0
"e1",7564921,"Self-Triangle Task",1,39,"circle.png","Friend","Match ","Mismatch ",610.187999976159,0
"e1",7564921,"Self-Triangle Task",1,40,"circle.png","You","Mismatch ","Match ",675.598999999987,0
"e1",7564921,"Self-Triangle Task",1,41,"circle.png","Friend","Match ","Mismatch ",490.25399997615,0
"e1",7564921,"Self-Triangle Task",1,42,"square.png","You","Mismatch ","Mismatch ",544.377000000008,1
"e1",7564921,"Self-Triangle Task",1,43,"btriangle.png","You","Match ","Match ",532.247999999992,1
"e1",7564921,"Self-Triangle Task",1,44,"square.png","Stranger","Match ","Mismatch ",552.836999976163,0
"e1",7564921,"Self-Triangle Task",1,45,"circle.png","Friend","Match ","Mismatch ",652.263999999996,0
"e1",7564921,"Self-Triangle Task",1,46,"square.png","Stranger","Match ","Mismatch ",651.807000047673,0
"e1",7564921,"Self-Triangle Task",1,47,"square.png","Friend","Mismatch ","Mismatch ",634.991999999998,1
"e1",7564921,"Self-Triangle Task",1,48,"btriangle.png","You","Match ","Match ",442.909000000014,1
"e1",7564921,"Self-Triangle Task",1,49,"circle.png","Friend","Match ","Mismatch ",594.891999976157,0
"e1",7564921,"Self-Triangle Task",1,50,"btriangle.png","Friend","Mismatch ","Mismatch ",629.010000023845,1
"e1",7564921,"Self-Triangle Task",1,51,"square.png","You","Mismatch ","Mismatch ",717.853000047675,1
"e1",7564921,"Self-Triangle Task",1,52,"square.png","Stranger","Match ","Mismatch ",682.125999976153,0
"e1",7564921,"Self-Triangle Task",1,53,"square.png","Friend","Mismatch ","Match ",752.501000023854,0
"e1",7564921,"Self-Triangle Task",1,54,"circle.png","Stranger","Mismatch ","Mismatch ",666.704999999987,1
"e1",7564921,"Self-Triangle Task",1,55,"circle.png","Stranger","Mismatch ","Mismatch ",635.575999976165,1
"e1",7564921,"Self-Triangle Task",1,56,"btriangle.png","Stranger","Mismatch ","Mismatch ",755.604999976145,1
"e1",7564921,"Self-Triangle Task",1,57,"square.png","Stranger","Match ","Mismatch ",591.009000023856,0
"e1",7564921,"Self-Triangle Task",1,58,"square.png","Stranger","Match ","Mismatch ",649.000000023836,0
"e1",7564921,"Self-Triangle Task",1,59,"circle.png","Stranger","Mismatch ","Mismatch ",680.826999976154,1
"e1",7564921,"Self-Triangle Task",1,60,"circle.png","Friend","Match ","Match ",887.384000047692,1
"e1",7564921,"Self-Triangle Task",2,61,"btriangle.png","Stranger","Mismatch ","",1500.10699999996,0
"e1",7564921,"Self-Triangle Task",2,62,"btriangle.png","You","Match ","Match ",669.339999952295,1
"e1",7564921,"Self-Triangle Task",2,63,"btriangle.png","Friend","Mismatch ","Mismatch ",651.492999952345,1
"e1",7564921,"Self-Triangle Task",2,64,"circle.png","Friend","Match ","Mismatch ",675.661000000022,0
"e1",7564921,"Self-Triangle Task",2,65,"circle.png","Friend","Match ","Match ",665.587999976182,1
"e1",7564921,"Self-Triangle Task",2,66,"square.png","You","Mismatch ","Mismatch ",761.541999976151,1
"e1",7564921,"Self-Triangle Task",2,67,"square.png","Friend","Mismatch ","Mismatch ",740.741999976162,1
"e1",7564921,"Self-Triangle Task",2,68,"btriangle.png","Stranger","Mismatch ","Mismatch ",744.75399997615,1
"e1",7564921,"Self-Triangle Task",2,69,"circle.png","Friend","Match ","Match ",844.230999976164,1
"e1",7564921,"Self-Triangle Task",2,70,"square.png","You","Mismatch ","Mismatch ",764.625000047672,1
"e1",7564921,"Self-Triangle Task",2,71,"square.png","Stranger","Match ","Mismatch ",688.09099997615,0
"e1",7564921,"Self-Triangle Task",2,72,"btriangle.png","Friend","Mismatch ","Match ",622.179999999993,0
"e1",7564921,"Self-Triangle Task",2,73,"btriangle.png","Friend","Mismatch ","Mismatch ",366.653999999922,1
"e1",7564921,"Self-Triangle Task",2,74,"square.png","Stranger","Match ","",1499.91700000002,0
"e1",7564921,"Self-Triangle Task",2,75,"circle.png","Friend","Match ","",1500.04700000002,0
"e1",7564921,"Self-Triangle Task",2,76,"circle.png","Stranger","Mismatch ","",1499.98700000002,0
"e1",7564921,"Self-Triangle Task",2,77,"square.png","Stranger","Match ","Mismatch ",822.180999999982,0
"e1",7564921,"Self-Triangle Task",2,78,"square.png","You","Mismatch ","Mismatch ",814.631999952311,1
"e1",7564921,"Self-Triangle Task",2,79,"btriangle.png","Stranger","Mismatch ","Match ",751.863000023819,0
"e1",7564921,"Self-Triangle Task",2,80,"circle.png","You","Mismatch ","Mismatch ",643.388999952294,1
"e1",7564921,"Self-Triangle Task",2,81,"btriangle.png","You","Match ","Match ",755.472000000009,1
"e1",7564921,"Self-Triangle Task",2,82,"circle.png","Stranger","Mismatch ","Mismatch ",790.72399997618,1
"e1",7564921,"Self-Triangle Task",2,83,"btriangle.png","Stranger","Mismatch ","Match ",720.825000000012,0
"e1",7564921,"Self-Triangle Task",2,84,"circle.png","Friend","Match ","Match ",773.332999952312,1
"e1",7564921,"Self-Triangle Task",2,85,"circle.png","Friend","Match ","Match ",744.053999976139,1
"e1",7564921,"Self-Triangle Task",2,86,"btriangle.png","You","Match ","Match ",788.08099997614,1
"e1",7564921,"Self-Triangle Task",2,87,"square.png","Stranger","Match ","Mismatch ",774.052999976149,0
"e1",7564921,"Self-Triangle Task",2,88,"circle.png","Friend","Match ","Match ",824.740999952308,1
"e1",7564921,"Self-Triangle Task",2,89,"btriangle.png","You","Match ","Match ",737.550999999978,1
"e1",7564921,"Self-Triangle Task",2,90,"square.png","Stranger","Match ","Mismatch ",645.387999952305,0
"e1",7564921,"Self-Triangle Task",2,91,"btriangle.png","You","Match ","Match ",565.092000023869,1
"e1",7564921,"Self-Triangle Task",2,92,"square.png","Stranger","Match ","Mismatch ",912.796999976155,0
"e1",7564921,"Self-Triangle Task",2,93,"square.png","Stranger","Match ","Mismatch ",765.94999995234,0
"e1",7564921,"Self-Triangle Task",2,94,"square.png","Stranger","Match ","Match ",561.476000000024,1
"e1",7564921,"Self-Triangle Task",2,95,"circle.png","You","Mismatch ","Mismatch ",732.72499997617,1
"e1",7564921,"Self-Triangle Task",2,96,"btriangle.png","Stranger","Mismatch ","Match ",777.436999976169,0
"e1",7564921,"Self-Triangle Task",2,97,"btriangle.png","You","Match ","Match ",612.036999976146,1
"e1",7564921,"Self-Triangle Task",2,98,"square.png","Friend","Mismatch ","Mismatch ",757.26699995232,1
"e1",7564921,"Self-Triangle Task",2,99,"square.png","You","Mismatch ","Mismatch ",720.708999976167,1
"e1",7564921,"Self-Triangle Task",2,100,"square.png","Friend","Mismatch ","Match ",1061.39799997618,0
"e1",7564921,"Self-Triangle Task",2,101,"square.png","Stranger","Match ","Mismatch ",1076.69699997618,0
"e1",7564921,"Self-Triangle Task",2,102,"circle.png","Stranger","Mismatch ","Mismatch ",963.32499995234,1
"e1",7564921,"Self-Triangle Task",2,103,"circle.png","Friend","Match ","Match ",798.693999976153,1
"e1",7564921,"Self-Triangle Task",2,104,"btriangle.png","You","Match ","Match ",552.701999952318,1
"e1",7564921,"Self-Triangle Task",2,105,"circle.png","Stranger","Mismatch ","Mismatch ",796.121999999974,1
"e1",7564921,"Self-Triangle Task",2,106,"square.png","You","Mismatch ","Mismatch ",733.33600000001,1
"e1",7564921,"Self-Triangle Task",2,107,"square.png","Friend","Mismatch ","Match ",866.591999952332,0
"e1",7564921,"Self-Triangle Task",2,108,"btriangle.png","You","Match ","Match ",729.929999952321,1
"e1",7564921,"Self-Triangle Task",2,109,"btriangle.png","Friend","Mismatch ","Match ",718.742999976152,0
"e1",7564921,"Self-Triangle Task",2,110,"btriangle.png","You","Match ","Match ",587.346999976144,1
"e1",7564921,"Self-Triangle Task",2,111,"circle.png","You","Mismatch ","Mismatch ",725.442999976163,1
"e1",7564921,"Self-Triangle Task",2,112,"square.png","Stranger","Match ","Mismatch ",761.910999952292,0
"e1",7564921,"Self-Triangle Task",2,113,"btriangle.png","Friend","Mismatch ","Mismatch ",661.429999999993,1
"e1",7564921,"Self-Triangle Task",2,114,"circle.png","Friend","Match ","Mismatch ",676.6819999523,0
"e1",7564921,"Self-Triangle Task",2,115,"circle.png","You","Mismatch ","Match ",562.963999999978,0
"e1",7564921,"Self-Triangle Task",2,116,"circle.png","Friend","Match ","Match ",750.016999999934,1
"e1",7564921,"Self-Triangle Task",2,117,"square.png","Friend","Mismatch ","Match ",722.463000047661,0
"e1",7564921,"Self-Triangle Task",2,118,"circle.png","Stranger","Mismatch ","Mismatch ",623.229999952309,1
"e1",7564921,"Self-Triangle Task",2,119,"circle.png","You","Mismatch ","Mismatch ",703.583999999973,1
"e1",7564921,"Self-Triangle Task",2,120,"btriangle.png","You","Match ","Match ",677.229999952309,1
"e1",7564921,"Self-Triangle Task",3,121,"circle.png","Stranger","Mismatch ","Mismatch ",704.530999952345,1
"e1",7564921,"Self-Triangle Task",3,122,"btriangle.png","You","Match ","Match ",621.868000047689,1
"e1",7564921,"Self-Triangle Task",3,123,"btriangle.png","You","Match ","Match ",790.61999997613,1
"e1",7564921,"Self-Triangle Task",3,124,"square.png","Stranger","Match ","Mismatch ",664.510999952327,0
"e1",7564921,"Self-Triangle Task",3,125,"square.png","Stranger","Match ","Mismatch ",663.81900004769,0
"e1",7564921,"Self-Triangle Task",3,126,"square.png","Friend","Mismatch ","Match ",775.070000047679,0
"e1",7564921,"Self-Triangle Task",3,127,"square.png","You","Mismatch ","Mismatch ",753.894999952288,1
"e1",7564921,"Self-Triangle Task",3,128,"btriangle.png","You","Match ","Match ",581.182999952347,1
"e1",7564921,"Self-Triangle Task",3,129,"btriangle.png","Stranger","Mismatch ","Mismatch ",687.527000000002,1
"e1",7564921,"Self-Triangle Task",3,130,"square.png","You","Mismatch ","Match ",669.906999952276,0
"e1",7564921,"Self-Triangle Task",3,131,"square.png","Stranger","Match ","Mismatch ",772.514999952284,0
"e1",7564921,"Self-Triangle Task",3,132,"btriangle.png","You","Match ","Match ",527.149999952293,1
"e1",7564921,"Self-Triangle Task",3,133,"circle.png","Friend","Match ","Match ",715.428999976139,1
"e1",7564921,"Self-Triangle Task",3,134,"circle.png","You","Mismatch ","Mismatch ",681.165999952354,1
"e1",7564921,"Self-Triangle Task",3,135,"square.png","Stranger","Match ","Mismatch ",639.832000047667,0
"e1",7564921,"Self-Triangle Task",3,136,"circle.png","Stranger","Mismatch ","Mismatch ",935.823999952292,1
"e1",7564921,"Self-Triangle Task",3,137,"circle.png","You","Mismatch ","Mismatch ",747.727000047686,1
"e1",7564921,"Self-Triangle Task",3,138,"btriangle.png","Friend","Mismatch ","Match ",831.890999952331,0
"e1",7564921,"Self-Triangle Task",3,139,"square.png","Stranger","Match ","Mismatch ",928.411000047694,0
"e1",7564921,"Self-Triangle Task",3,140,"square.png","Friend","Mismatch ","Mismatch ",829.237999976147,1
"e1",7564921,"Self-Triangle Task",3,141,"square.png","You","Mismatch ","Mismatch ",725.815999952261,1
"e1",7564921,"Self-Triangle Task",3,142,"circle.png","Friend","Match ","Match ",874.391000047675,1
"e1",7564921,"Self-Triangle Task",3,143,"circle.png","Stranger","Mismatch ","Match ",801.147999952314,0
"e1",7564921,"Self-Triangle Task",3,144,"square.png","You","Mismatch ","Mismatch ",898.581999976188,1
"e1",7564921,"Self-Triangle Task",3,145,"btriangle.png","Friend","Mismatch ","Mismatch ",952.369000047678,1
"e1",7564921,"Self-Triangle Task",3,146,"circle.png","Friend","Match ","Match ",707.299999952316,1
"e1",7564921,"Self-Triangle Task",3,147,"circle.png","Stranger","Mismatch ","Mismatch ",969.141000047675,1
"e1",7564921,"Self-Triangle Task",3,148,"btriangle.png","Friend","Mismatch ","Mismatch ",1059.90999997617,1
"e1",7564921,"Self-Triangle Task",3,149,"btriangle.png","Stranger","Mismatch ","Mismatch ",987.19999995234,1
"e1",7564921,"Self-Triangle Task",3,150,"square.png","Stranger","Match ","Mismatch ",1053.02300004766,0
"e1",7564921,"Self-Triangle Task",3,151,"btriangle.png","Stranger","Mismatch ","Mismatch ",1204.46099995228,1
"e1",7564921,"Self-Triangle Task",3,152,"circle.png","Friend","Match ","Match ",1029.91099995235,1
"e1",7564921,"Self-Triangle Task",3,153,"circle.png","Stranger","Mismatch ","Match ",926.356000047643,0
"e1",7564921,"Self-Triangle Task",3,154,"btriangle.png","Friend","Mismatch ","Mismatch ",747.140999952331,1
"e1",7564921,"Self-Triangle Task",3,155,"circle.png","You","Mismatch ","Mismatch ",839.017000047723,1
"e1",7564921,"Self-Triangle Task",3,156,"btriangle.png","You","Match ","Match ",855.098999952315,1
"e1",7564921,"Self-Triangle Task",3,157,"circle.png","Friend","Match ","Match ",814.405000047642,1
"e1",7564921,"Self-Triangle Task",3,158,"square.png","Friend","Mismatch ","Mismatch ",871.761000047671,1
"e1",7564921,"Self-Triangle Task",3,159,"circle.png","Friend","Match ","Match ",870.469999952358,1
"e1",7564921,"Self-Triangle Task",3,160,"btriangle.png","You","Match ","Match ",645.098999952315,1
"e1",7564921,"Self-Triangle Task",3,161,"btriangle.png","Stranger","Mismatch ","Mismatch ",724.904000023846,1
"e1",7564921,"Self-Triangle Task",3,162,"square.png","Stranger","Match ","Match ",857.681000047713,1
"e1",7564921,"Self-Triangle Task",3,163,"btriangle.png","You","Match ","Match ",697.001000047661,1
"e1",7564921,"Self-Triangle Task",3,164,"square.png","Stranger","Match ","Mismatch ",687.195999976131,0
"e1",7564921,"Self-Triangle Task",3,165,"circle.png","You","Mismatch ","Mismatch ",781.113999952329,1
"e1",7564921,"Self-Triangle Task",3,166,"square.png","Stranger","Match ","Match ",815.474000000046,1
"e1",7564921,"Self-Triangle Task",3,167,"circle.png","Friend","Match ","Match ",921.038000047673,1
"e1",7564921,"Self-Triangle Task",3,168,"circle.png","Friend","Match ","Match ",797.888999952353,1
"e1",7564921,"Self-Triangle Task",3,169,"circle.png","Friend","Match ","Match ",647.884999952279,1
"e1",7564921,"Self-Triangle Task",3,170,"square.png","Stranger","Match ","Mismatch ",687.86499995226,0
"e1",7564921,"Self-Triangle Task",3,171,"btriangle.png","You","Match ","Match ",525.721000047633,1
"e1",7564921,"Self-Triangle Task",3,172,"square.png","Friend","Mismatch ","Match ",882.613999976194,0
"e1",7564921,"Self-Triangle Task",3,173,"btriangle.png","You","Match ","Match ",608.977000047686,1
"e1",7564921,"Self-Triangle Task",3,174,"circle.png","Friend","Match ","Match ",682.330000047688,1
"e1",7564921,"Self-Triangle Task",3,175,"circle.png","You","Mismatch ","Match ",536.965000047698,0
"e1",7564921,"Self-Triangle Task",3,176,"square.png","You","Mismatch ","Mismatch ",916.621999999974,1
"e1",7564921,"Self-Triangle Task",3,177,"btriangle.png","Friend","Mismatch ","Mismatch ",978.302000047639,1
"e1",7564921,"Self-Triangle Task",3,178,"btriangle.png","Stranger","Mismatch ","Mismatch ",725.079000047641,1
"e1",7564921,"Self-Triangle Task",3,179,"square.png","Friend","Mismatch ","Mismatch ",945.620000047726,1
"e1",7564921,"Self-Triangle Task",3,180,"btriangle.png","You","Match ","Match ",733.358000000007,1
"e1",7564974,"Self-Triangle Task",1,1,"circle.png","Stranger","Mismatch ","Mismatch ",1133.74000000002,1
"e1",7564974,"Self-Triangle Task",1,2,"btriangle.png","Stranger","Mismatch ","Mismatch ",1028.73199998809,1
"e1",7564974,"Self-Triangle Task",1,3,"btriangle.png","You","Match ","Match ",995.843999976147,1
"e1",7564974,"Self-Triangle Task",1,4,"btriangle.png","Stranger","Mismatch ","Mismatch ",1012.36399998807,1
"e1",7564974,"Self-Triangle Task",1,5,"square.png","Stranger","Match ","Match ",1219.45800001192,1
"e1",7564974,"Self-Triangle Task",1,6,"square.png","You","Mismatch ","Mismatch ",1112.20900001194,1
"e1",7564974,"Self-Triangle Task",1,7,"circle.png","You","Mismatch ","Mismatch ",1239.84599999999,1
"e1",7564974,"Self-Triangle Task",1,8,"circle.png","Friend","Match ","Match ",961.602999964234,1
"e1",7564974,"Self-Triangle Task",1,9,"btriangle.png","You","Match ","Match ",905.480000011914,1
"e1",7564974,"Self-Triangle Task",1,10,"square.png","You","Mismatch ","Mismatch ",1062.81899999999,1
"e1",7564974,"Self-Triangle Task",1,11,"circle.png","Friend","Match ","Match ",959.842999999993,1
"e1",7564974,"Self-Triangle Task",1,12,"btriangle.png","Stranger","Mismatch ","Mismatch ",1289.28099997615,1
"e1",7564974,"Self-Triangle Task",1,13,"circle.png","You","Mismatch ","",1500.44199999998,0
"e1",7564974,"Self-Triangle Task",1,14,"square.png","Stranger","Match ","",1500.318,0
"e1",7564974,"Self-Triangle Task",1,15,"square.png","Stranger","Match ","Mismatch ",946.890000011917,0
"e1",7564974,"Self-Triangle Task",1,16,"btriangle.png","You","Match ","Match ",1095.90399998808,1
"e1",7564974,"Self-Triangle Task",1,17,"circle.png","You","Mismatch ","Mismatch ",876.696999988082,1
"e1",7564974,"Self-Triangle Task",1,18,"btriangle.png","Friend","Mismatch ","Mismatch ",1123.00299996423,1
"e1",7564974,"Self-Triangle Task",1,19,"square.png","Stranger","Match ","Match ",1193.74799999999,1
"e1",7564974,"Self-Triangle Task",1,20,"circle.png","You","Mismatch ","Mismatch ",792.956999964226,1
"e1",7564974,"Self-Triangle Task",1,21,"btriangle.png","You","Match ","Match ",742.367999988084,1
"e1",7564974,"Self-Triangle Task",1,22,"btriangle.png","Stranger","Mismatch ","Mismatch ",1063.03399996425,1
"e1",7564974,"Self-Triangle Task",1,23,"square.png","Friend","Mismatch ","Mismatch ",1003.41800000001,1
"e1",7564974,"Self-Triangle Task",1,24,"square.png","You","Mismatch ","Mismatch ",980.64199998806,1
"e1",7564974,"Self-Triangle Task",1,25,"circle.png","Stranger","Mismatch ","Mismatch ",1249.02599996421,1
"e1",7564974,"Self-Triangle Task",1,26,"circle.png","Stranger","Mismatch ","Mismatch ",1044.11899996421,1
"e1",7564974,"Self-Triangle Task",1,27,"circle.png","Friend","Match ","Match ",912.17200000002,1
"e1",7564974,"Self-Triangle Task",1,28,"btriangle.png","You","Match ","Match ",1237.71299997618,1
"e1",7564974,"Self-Triangle Task",1,29,"btriangle.png","You","Match ","Match ",850.02099996421,1
"e1",7564974,"Self-Triangle Task",1,30,"btriangle.png","Friend","Mismatch ","Mismatch ",873.746999964234,1
"e1",7564974,"Self-Triangle Task",1,31,"circle.png","Friend","Match ","Match ",1002.554,1
"e1",7564974,"Self-Triangle Task",1,32,"circle.png","Friend","Match ","Match ",1300.52300000004,1
"e1",7564974,"Self-Triangle Task",1,33,"circle.png","You","Mismatch ","Mismatch ",866.92200000002,1
"e1",7564974,"Self-Triangle Task",1,34,"square.png","Friend","Mismatch ","Mismatch ",1113.29200000002,1
"e1",7564974,"Self-Triangle Task",1,35,"btriangle.png","Friend","Mismatch ","Mismatch ",1006.64600001194,1
"e1",7564974,"Self-Triangle Task",1,36,"btriangle.png","Stranger","Mismatch ","Mismatch ",909.798999976134,1
"e1",7564974,"Self-Triangle Task",1,37,"btriangle.png","You","Match ","Match ",816.779000000039,1
"e1",7564974,"Self-Triangle Task",1,38,"square.png","Friend","Mismatch ","Mismatch ",826.357000011893,1
"e1",7564974,"Self-Triangle Task",1,39,"btriangle.png","You","Match ","Match ",931.056999964232,1
"e1",7564974,"Self-Triangle Task",1,40,"circle.png","Friend","Match ","Match ",1025.65699997614,1
"e1",7564974,"Self-Triangle Task",1,41,"square.png","Stranger","Match ","Match ",929.161999976146,1
"e1",7564974,"Self-Triangle Task",1,42,"square.png","Stranger","Match ","Match ",1046.25299996423,1
"e1",7564974,"Self-Triangle Task",1,43,"square.png","Stranger","Match ","Match ",861.248999976146,1
"e1",7564974,"Self-Triangle Task",1,44,"square.png","Friend","Mismatch ","Mismatch ",859.363999976136,1
"e1",7564974,"Self-Triangle Task",1,45,"circle.png","Friend","Match ","Match ",887.178999988071,1
"e1",7564974,"Self-Triangle Task",1,46,"circle.png","Friend","Match ","Match ",923.306999964232,1
"e1",7564974,"Self-Triangle Task",1,47,"square.png","You","Mismatch ","Mismatch ",996.63400000002,1
"e1",7564974,"Self-Triangle Task",1,48,"square.png","Stranger","Match ","Match ",1016.91600000003,1
"e1",7564974,"Self-Triangle Task",1,49,"circle.png","Stranger","Mismatch ","Mismatch ",1373.03199996421,1
"e1",7564974,"Self-Triangle Task",1,50,"circle.png","Friend","Match ","Match ",822.053999976139,1
"e1",7564974,"Self-Triangle Task",1,51,"circle.png","Stranger","Mismatch ","Mismatch ",821.045999999973,1
"e1",7564974,"Self-Triangle Task",1,52,"square.png","Friend","Mismatch ","Mismatch ",966.876000000047,1
"e1",7564974,"Self-Triangle Task",1,53,"square.png","Stranger","Match ","Match ",991.559999999998,1
"e1",7564974,"Self-Triangle Task",1,54,"btriangle.png","Friend","Mismatch ","Mismatch ",1328.02200001193,1
"e1",7564974,"Self-Triangle Task",1,55,"btriangle.png","You","Match ","Match ",675.131999964244,1
"e1",7564974,"Self-Triangle Task",1,56,"btriangle.png","You","Match ","Match ",846.933000000019,1
"e1",7564974,"Self-Triangle Task",1,57,"square.png","Stranger","Match ","Match ",1056.71599997615,1
"e1",7564974,"Self-Triangle Task",1,58,"square.png","You","Mismatch ","Mismatch ",1052.80599999998,1
"e1",7564974,"Self-Triangle Task",1,59,"btriangle.png","Friend","Mismatch ","Mismatch ",1074.13700001192,1
"e1",7564974,"Self-Triangle Task",1,60,"circle.png","Friend","Match ","Match ",795.432000011904,1
"e1",7564974,"Self-Triangle Task",2,61,"btriangle.png","You","Match ","Match ",1164.40000000002,1
"e1",7564974,"Self-Triangle Task",2,62,"circle.png","Friend","Match ","Match ",1069.837,1
"e1",7564974,"Self-Triangle Task",2,63,"btriangle.png","You","Match ","",1500.46499999997,0
"e1",7564974,"Self-Triangle Task",2,64,"square.png","Friend","Mismatch ","Mismatch ",1172.34999996424,1
"e1",7564974,"Self-Triangle Task",2,65,"btriangle.png","You","Match ","Match ",1050.30700000003,1
"e1",7564974,"Self-Triangle Task",2,66,"circle.png","Stranger","Mismatch ","Mismatch ",843.691999976174,1
"e1",7564974,"Self-Triangle Task",2,67,"circle.png","Stranger","Mismatch ","Mismatch ",866.624000000011,1
"e1",7564974,"Self-Triangle Task",2,68,"btriangle.png","Friend","Mismatch ","Mismatch ",885.818999988085,1
"e1",7564974,"Self-Triangle Task",2,69,"square.png","You","Mismatch ","Mismatch ",898.917000000016,1
"e1",7564974,"Self-Triangle Task",2,70,"square.png","Stranger","Match ","Match ",943.613000000012,1
"e1",7564974,"Self-Triangle Task",2,71,"square.png","Friend","Mismatch ","Mismatch ",777.859999999986,1
"e1",7564974,"Self-Triangle Task",2,72,"circle.png","Friend","Match ","Match ",787.083000011917,1
"e1",7564974,"Self-Triangle Task",2,73,"btriangle.png","You","Match ","Match ",844.66499996424,1
"e1",7564974,"Self-Triangle Task",2,74,"square.png","Stranger","Match ","Match ",1143.50399998808,1
"e1",7564974,"Self-Triangle Task",2,75,"square.png","You","Mismatch ","Mismatch ",968.654999988095,1
"e1",7564974,"Self-Triangle Task",2,76,"btriangle.png","You","Match ","Match ",978.299999999988,1
"e1",7564974,"Self-Triangle Task",2,77,"square.png","Friend","Mismatch ","Mismatch ",800.261999999988,1
"e1",7564974,"Self-Triangle Task",2,78,"square.png","You","Mismatch ","Mismatch ",983.430999999982,1
"e1",7564974,"Self-Triangle Task",2,79,"square.png","Stranger","Match ","Match ",866.89300000004,1
"e1",7564974,"Self-Triangle Task",2,80,"square.png","You","Mismatch ","Mismatch ",839.456000000006,1
"e1",7564974,"Self-Triangle Task",2,81,"btriangle.png","Friend","Mismatch ","Mismatch ",1079.56899997615,1
"e1",7564974,"Self-Triangle Task",2,82,"btriangle.png","Friend","Mismatch ","Match ",1023.08499996422,0
"e1",7564974,"Self-Triangle Task",2,83,"square.png","Stranger","Match ","Match ",991.747000011906,1
"e1",7564974,"Self-Triangle Task",2,84,"circle.png","Friend","Match ","Match ",1041.96299999999,1
"e1",7564974,"Self-Triangle Task",2,85,"square.png","Stranger","Match ","Match ",1063.82699999999,1
"e1",7564974,"Self-Triangle Task",2,86,"square.png","You","Mismatch ","Mismatch ",845.583000011917,1
"e1",7564974,"Self-Triangle Task",2,87,"btriangle.png","Stranger","Mismatch ","Mismatch ",1030.97999997617,1
"e1",7564974,"Self-Triangle Task",2,88,"square.png","Stranger","Match ","",1500.52799999999,0
"e1",7564974,"Self-Triangle Task",2,89,"square.png","Stranger","Match ","Match ",814.561999964237,1
"e1",7564974,"Self-Triangle Task",2,90,"circle.png","Stranger","Mismatch ","Mismatch ",958.751999964239,1
"e1",7564974,"Self-Triangle Task",2,91,"btriangle.png","Stranger","Mismatch ","Mismatch ",976.17300000001,1
"e1",7564974,"Self-Triangle Task",2,92,"btriangle.png","Stranger","Mismatch ","Mismatch ",1127.33900001191,1
"e1",7564974,"Self-Triangle Task",2,93,"btriangle.png","You","Match ","Match ",1108.47599996423,1
"e1",7564974,"Self-Triangle Task",2,94,"btriangle.png","You","Match ","Match ",1200.23700000002,1
"e1",7564974,"Self-Triangle Task",2,95,"circle.png","You","Mismatch ","Mismatch ",974.893000011914,1
"e1",7564974,"Self-Triangle Task",2,96,"circle.png","Friend","Match ","Match ",886.648999988101,1
"e1",7564974,"Self-Triangle Task",2,97,"square.png","Friend","Mismatch ","Mismatch ",759.485000011919,1
"e1",7564974,"Self-Triangle Task",2,98,"btriangle.png","Friend","Mismatch ","Mismatch ",845.553000011947,1
"e1",7564974,"Self-Triangle Task",2,99,"circle.png","Friend","Match ","Match ",798.214999988093,1
"e1",7564974,"Self-Triangle Task",2,100,"circle.png","Friend","Match ","Match ",843.86599996424,1
"e1",7564974,"Self-Triangle Task",2,101,"square.png","Stranger","Match ","",1500.49800000002,0
"e1",7564974,"Self-Triangle Task",2,102,"circle.png","You","Mismatch ","Mismatch ",922.099000000046,1
"e1",7564974,"Self-Triangle Task",2,103,"btriangle.png","You","Match ","Match ",931.155999988085,1
"e1",7564974,"Self-Triangle Task",2,104,"circle.png","You","Mismatch ","Mismatch ",870.705000011949,1
"e1",7564974,"Self-Triangle Task",2,105,"btriangle.png","You","Match ","Match ",952.249999976135,1
"e1",7564974,"Self-Triangle Task",2,106,"circle.png","Stranger","Mismatch ","Mismatch ",929.366000000038,1
"e1",7564974,"Self-Triangle Task",2,107,"btriangle.png","You","Match ","Match ",876.662999976194,1
"e1",7564974,"Self-Triangle Task",2,108,"circle.png","Stranger","Mismatch ","Mismatch ",1137.72099996428,1
"e1",7564974,"Self-Triangle Task",2,109,"circle.png","Friend","Match ","Match ",971.587000011932,1
"e1",7564974,"Self-Triangle Task",2,110,"circle.png","Friend","Match ","Match ",963.668999976129,1
"e1",7564974,"Self-Triangle Task",2,111,"square.png","Stranger","Match ","Mismatch ",843.616999976104,0
"e1",7564974,"Self-Triangle Task",2,112,"btriangle.png","Stranger","Mismatch ","Mismatch ",819.543999999994,1
"e1",7564974,"Self-Triangle Task",2,113,"circle.png","Friend","Match ","Match ",874.10699996422,1
"e1",7564974,"Self-Triangle Task",2,114,"circle.png","Friend","Match ","Match ",1483.35100000002,1
"e1",7564974,"Self-Triangle Task",2,115,"circle.png","You","Mismatch ","Mismatch ",775.259999988135,1
"e1",7564974,"Self-Triangle Task",2,116,"btriangle.png","Stranger","Mismatch ","Mismatch ",837.48399997619,1
"e1",7564974,"Self-Triangle Task",2,117,"circle.png","You","Mismatch ","Mismatch ",863.748999999953,1
"e1",7564974,"Self-Triangle Task",2,118,"square.png","Friend","Mismatch ","Mismatch ",959.602999988128,1
"e1",7564974,"Self-Triangle Task",2,119,"btriangle.png","Friend","Mismatch ","Mismatch ",1016.88800000004,1
"e1",7564974,"Self-Triangle Task",2,120,"square.png","Stranger","Match ","Match ",924.013999964227,1
"e1",7564974,"Self-Triangle Task",3,121,"circle.png","Friend","Match ","Match ",826.168999999994,1
"e1",7564974,"Self-Triangle Task",3,122,"circle.png","Friend","Match ","Match ",800.142999999924,1
"e1",7564974,"Self-Triangle Task",3,123,"square.png","Stranger","Match ","Match ",923.410000000033,1
"e1",7564974,"Self-Triangle Task",3,124,"btriangle.png","Stranger","Mismatch ","Mismatch ",829.464999988093,1
"e1",7564974,"Self-Triangle Task",3,125,"circle.png","You","Mismatch ","Mismatch ",1018.49100001191,1
"e1",7564974,"Self-Triangle Task",3,126,"square.png","Friend","Mismatch ","Mismatch ",864.193999988027,1
"e1",7564974,"Self-Triangle Task",3,127,"btriangle.png","You","Match ","Match ",950.256999999867,1
"e1",7564974,"Self-Triangle Task",3,128,"circle.png","You","Mismatch ","Mismatch ",833.455000000075,1
"e1",7564974,"Self-Triangle Task",3,129,"btriangle.png","Friend","Mismatch ","Mismatch ",894.130000011879,1
"e1",7564974,"Self-Triangle Task",3,130,"square.png","You","Mismatch ","Mismatch ",804.112999964273,1
"e1",7564974,"Self-Triangle Task",3,131,"btriangle.png","You","Match ","Match ",1066.31699997617,1
"e1",7564974,"Self-Triangle Task",3,132,"square.png","Stranger","Match ","Match ",1088.58299997612,1
"e1",7564974,"Self-Triangle Task",3,133,"btriangle.png","Friend","Mismatch ","Mismatch ",1066.97400000005,1
"e1",7564974,"Self-Triangle Task",3,134,"circle.png","Stranger","Mismatch ","Mismatch ",1154.47199996421,1
"e1",7564974,"Self-Triangle Task",3,135,"btriangle.png","You","Match ","Match ",959.810000000056,1
"e1",7564974,"Self-Triangle Task",3,136,"square.png","Stranger","Match ","Match ",836.845999976154,1
"e1",7564974,"Self-Triangle Task",3,137,"btriangle.png","You","Match ","Match ",990.962000011932,1
"e1",7564974,"Self-Triangle Task",3,138,"btriangle.png","Friend","Mismatch ","Mismatch ",955.042999988073,1
"e1",7564974,"Self-Triangle Task",3,139,"btriangle.png","You","Match ","Match ",1040.36199997622,1
"e1",7564974,"Self-Triangle Task",3,140,"square.png","Stranger","Match ","Match ",992.423000011942,1
"e1",7564974,"Self-Triangle Task",3,141,"circle.png","Friend","Match ","Match ",958.363000000012,1
"e1",7564974,"Self-Triangle Task",3,142,"square.png","Stranger","Match ","Match ",916.862999999896,1
"e1",7564974,"Self-Triangle Task",3,143,"circle.png","You","Mismatch ","Mismatch ",920.944999999949,1
"e1",7564974,"Self-Triangle Task",3,144,"circle.png","Friend","Match ","Match ",893.251999964239,1
"e1",7564974,"Self-Triangle Task",3,145,"square.png","Stranger","Match ","Match ",1120.00799997617,1
"e1",7564974,"Self-Triangle Task",3,146,"circle.png","Friend","Match ","Match ",994.078999988036,1
"e1",7564974,"Self-Triangle Task",3,147,"circle.png","Friend","Match ","Match ",897.286999964272,1
"e1",7564974,"Self-Triangle Task",3,148,"square.png","You","Mismatch ","Mismatch ",906.017999964184,1
"e1",7564974,"Self-Triangle Task",3,149,"square.png","You","Mismatch ","Mismatch ",1092.65299998806,1
"e1",7564974,"Self-Triangle Task",3,150,"square.png","Stranger","Match ","Match ",838.380000011879,1
"e1",7564974,"Self-Triangle Task",3,151,"btriangle.png","Stranger","Mismatch ","Mismatch ",908.369999999995,1
"e1",7564974,"Self-Triangle Task",3,152,"btriangle.png","You","Match ","Match ",911.103999964194,1
"e1",7564974,"Self-Triangle Task",3,153,"circle.png","Stranger","Mismatch ","Mismatch ",955.374999976135,1
"e1",7564974,"Self-Triangle Task",3,154,"square.png","Friend","Mismatch ","Mismatch ",964.000999976182,1
"e1",7564974,"Self-Triangle Task",3,155,"circle.png","Friend","Match ","Match ",854.22099996428,1
"e1",7564974,"Self-Triangle Task",3,156,"square.png","You","Mismatch ","Mismatch ",907.86199998809,1
"e1",7564974,"Self-Triangle Task",3,157,"square.png","Stranger","Match ","Match ",945.445999964257,1
"e1",7564974,"Self-Triangle Task",3,158,"btriangle.png","You","Match ","Match ",1000.17099999986,1
"e1",7564974,"Self-Triangle Task",3,159,"btriangle.png","You","Match ","Match ",812.26800000004,1
"e1",7564974,"Self-Triangle Task",3,160,"circle.png","Stranger","Mismatch ","Mismatch ",1018.73400000005,1
"e1",7564974,"Self-Triangle Task",3,161,"btriangle.png","You","Match ","Match ",912.847999988124,1
"e1",7564974,"Self-Triangle Task",3,162,"square.png","You","Mismatch ","Mismatch ",846.693999976153,1
"e1",7564974,"Self-Triangle Task",3,163,"circle.png","Friend","Match ","Match ",1137.53200000001,1
"e1",7564974,"Self-Triangle Task",3,164,"btriangle.png","Friend","Mismatch ","Mismatch ",829.088999976171,1
"e1",7564974,"Self-Triangle Task",3,165,"square.png","Friend","Mismatch ","Mismatch ",821.408999999985,1
"e1",7564974,"Self-Triangle Task",3,166,"btriangle.png","You","Match ","Match ",859.324000011897,1
"e1",7564974,"Self-Triangle Task",3,167,"square.png","Stranger","Match ","Match ",1037.98399997619,1
"e1",7564974,"Self-Triangle Task",3,168,"btriangle.png","Stranger","Mismatch ","Mismatch ",1037.65699997614,1
"e1",7564974,"Self-Triangle Task",3,169,"square.png","Friend","Mismatch ","Mismatch ",886.190999988117,1
"e1",7564974,"Self-Triangle Task",3,170,"circle.png","You","Mismatch ","Mismatch ",899.712000000058,1
"e1",7564974,"Self-Triangle Task",3,171,"btriangle.png","Stranger","Mismatch ","Mismatch ",1085.34299997613,1
"e1",7564974,"Self-Triangle Task",3,172,"circle.png","Stranger","Mismatch ","Mismatch ",860.323999988032,1
"e1",7564974,"Self-Triangle Task",3,173,"circle.png","You","Mismatch ","Mismatch ",833.033000011928,1
"e1",7564974,"Self-Triangle Task",3,174,"circle.png","Stranger","Mismatch ","Mismatch ",862.833999988041,1
"e1",7564974,"Self-Triangle Task",3,175,"circle.png","Friend","Match ","Match ",905.332999964245,1
"e1",7564974,"Self-Triangle Task",3,176,"btriangle.png","Friend","Mismatch ","Mismatch ",849.515000011888,1
"e1",7564974,"Self-Triangle Task",3,177,"square.png","Friend","Mismatch ","Mismatch ",904.226999988081,1
"e1",7564974,"Self-Triangle Task",3,178,"square.png","Stranger","Match ","Match ",1050.25699999998,1
"e1",7564974,"Self-Triangle Task",3,179,"btriangle.png","Stranger","Mismatch ","Mismatch ",735.866000000038,1
"e1",7564974,"Self-Triangle Task",3,180,"circle.png","Friend","Match ","Match ",814.097999999998,1
"e1",7565167,"Self-Triangle Task",1,1,"btriangle.png","Stranger","Mismatch ","",1499.21400000004,0
"e1",7565167,"Self-Triangle Task",1,2,"btriangle.png","Stranger","Mismatch ","Match ",1179.60299997614,0
"e1",7565167,"Self-Triangle Task",1,3,"btriangle.png","Friend","Mismatch ","Match ",1112.26299997617,0
"e1",7565167,"Self-Triangle Task",1,4,"circle.png","Friend","Match ","Match ",1094.37300000002,1
"e1",7565167,"Self-Triangle Task",1,5,"btriangle.png","Friend","Mismatch ","Mismatch ",1278.22899998806,1
"e1",7565167,"Self-Triangle Task",1,6,"square.png","Stranger","Match ","Match ",1036.64399997616,1
"e1",7565167,"Self-Triangle Task",1,7,"square.png","Stranger","Match ","Mismatch ",886.51299997617,0
"e1",7565167,"Self-Triangle Task",1,8,"square.png","You","Mismatch ","Mismatch ",991.55499998806,1
"e1",7565167,"Self-Triangle Task",1,9,"circle.png","Friend","Match ","Match ",1031.84599997615,1
"e1",7565167,"Self-Triangle Task",1,10,"circle.png","You","Mismatch ","Mismatch ",1298.21999999997,1
"e1",7565167,"Self-Triangle Task",1,11,"square.png","You","Mismatch ","Mismatch ",848.966999982134,1
"e1",7565167,"Self-Triangle Task",1,12,"btriangle.png","You","Match ","Match ",640.889999982144,1
"e1",7565167,"Self-Triangle Task",1,13,"circle.png","Friend","Match ","Match ",964.286999988079,1
"e1",7565167,"Self-Triangle Task",1,14,"square.png","Stranger","Match ","Mismatch ",831.642999999982,0
"e1",7565167,"Self-Triangle Task",1,15,"circle.png","You","Mismatch ","Match ",763.831999994058,0
"e1",7565167,"Self-Triangle Task",1,16,"circle.png","Friend","Match ","Match ",806.272999994049,1
"e1",7565167,"Self-Triangle Task",1,17,"square.png","Stranger","Match ","Match ",953.635999999999,1
"e1",7565167,"Self-Triangle Task",1,18,"btriangle.png","You","Match ","Match ",769.18599997618,1
"e1",7565167,"Self-Triangle Task",1,19,"square.png","You","Mismatch ","Mismatch ",773.216999994067,1
"e1",7565167,"Self-Triangle Task",1,20,"btriangle.png","Stranger","Mismatch ","Mismatch ",920.61299998808,1
"e1",7565167,"Self-Triangle Task",1,21,"square.png","Stranger","Match ","Match ",1047.98299998214,1
"e1",7565167,"Self-Triangle Task",1,22,"square.png","Friend","Mismatch ","Mismatch ",1066.32099998806,1
"e1",7565167,"Self-Triangle Task",1,23,"circle.png","Friend","Match ","Match ",943.393999982101,1
"e1",7565167,"Self-Triangle Task",1,24,"circle.png","Friend","Match ","Match ",841.294999999984,1
"e1",7565167,"Self-Triangle Task",1,25,"square.png","Friend","Mismatch ","Mismatch ",1275.14099998807,1
"e1",7565167,"Self-Triangle Task",1,26,"btriangle.png","You","Match ","Match ",803.124999994063,1
"e1",7565167,"Self-Triangle Task",1,27,"circle.png","Stranger","Mismatch ","Mismatch ",915.058999994013,1
"e1",7565167,"Self-Triangle Task",1,28,"circle.png","Stranger","Mismatch ","Mismatch ",940.70599997614,1
"e1",7565167,"Self-Triangle Task",1,29,"circle.png","Friend","Match ","Mismatch ",948.032000000007,0
"e1",7565167,"Self-Triangle Task",1,30,"btriangle.png","Friend","Mismatch ","Match ",1071.26199998806,0
"e1",7565167,"Self-Triangle Task",1,31,"square.png","Stranger","Match ","Mismatch ",755.65099998808,0
"e1",7565167,"Self-Triangle Task",1,32,"btriangle.png","You","Match ","Match ",895.422999976145,1
"e1",7565167,"Self-Triangle Task",1,33,"circle.png","Stranger","Mismatch ","Mismatch ",1071.45099998213,1
"e1",7565167,"Self-Triangle Task",1,34,"square.png","Stranger","Match ","Match ",1036.75099997618,1
"e1",7565167,"Self-Triangle Task",1,35,"btriangle.png","Stranger","Mismatch ","Mismatch ",970.967999994056,1
"e1",7565167,"Self-Triangle Task",1,36,"btriangle.png","You","Match ","Match ",678.344999999972,1
"e1",7565167,"Self-Triangle Task",1,37,"square.png","Stranger","Match ","Mismatch ",1157.33799997618,0
"e1",7565167,"Self-Triangle Task",1,38,"btriangle.png","Stranger","Mismatch ","Mismatch ",878.548999976134,1
"e1",7565167,"Self-Triangle Task",1,39,"circle.png","Stranger","Mismatch ","Mismatch ",916.665999999968,1
"e1",7565167,"Self-Triangle Task",1,40,"circle.png","Friend","Match ","Match ",695.519999994023,1
"e1",7565167,"Self-Triangle Task",1,41,"btriangle.png","You","Match ","Match ",891.846999988076,1
"e1",7565167,"Self-Triangle Task",1,42,"square.png","You","Mismatch ","Match ",1058.64099998213,0
"e1",7565167,"Self-Triangle Task",1,43,"circle.png","You","Mismatch ","Mismatch ",874.745999994047,1
"e1",7565167,"Self-Triangle Task",1,44,"btriangle.png","Friend","Mismatch ","Match ",1202.69199998811,0
"e1",7565167,"Self-Triangle Task",1,45,"circle.png","Stranger","Mismatch ","Mismatch ",820.459999994026,1
"e1",7565167,"Self-Triangle Task",1,46,"circle.png","You","Mismatch ","Mismatch ",858.641000000003,1
"e1",7565167,"Self-Triangle Task",1,47,"square.png","Friend","Mismatch ","Mismatch ",862.889000000025,1
"e1",7565167,"Self-Triangle Task",1,48,"square.png","Friend","Mismatch ","Mismatch ",876.871999999974,1
"e1",7565167,"Self-Triangle Task",1,49,"circle.png","Friend","Match ","Mismatch ",732.086999994062,0
"e1",7565167,"Self-Triangle Task",1,50,"circle.png","You","Mismatch ","Mismatch ",1152.37899998215,1
"e1",7565167,"Self-Triangle Task",1,51,"btriangle.png","You","Match ","Match ",842.956999999995,1
"e1",7565167,"Self-Triangle Task",1,52,"square.png","Stranger","Match ","Match ",1119.2259999821,1
"e1",7565167,"Self-Triangle Task",1,53,"square.png","Friend","Mismatch ","Mismatch ",843.543999994057,1
"e1",7565167,"Self-Triangle Task",1,54,"square.png","You","Mismatch ","Mismatch ",883.625,1
"e1",7565167,"Self-Triangle Task",1,55,"btriangle.png","You","Match ","Match ",786.70199999999,1
"e1",7565167,"Self-Triangle Task",1,56,"square.png","Stranger","Match ","Match ",931.635999994061,1
"e1",7565167,"Self-Triangle Task",1,57,"btriangle.png","You","Match ","Match ",787.818999976153,1
"e1",7565167,"Self-Triangle Task",1,58,"btriangle.png","Friend","Mismatch ","Mismatch ",1185.69999997615,1
"e1",7565167,"Self-Triangle Task",1,59,"circle.png","Friend","Match ","Match ",857.291000000027,1
"e1",7565167,"Self-Triangle Task",1,60,"btriangle.png","You","Match ","Match ",952.492999976152,1
"e1",7565167,"Self-Triangle Task",2,61,"btriangle.png","Stranger","Mismatch ","Mismatch ",1041.97099997615,1
"e1",7565167,"Self-Triangle Task",2,62,"circle.png","Stranger","Mismatch ","Mismatch ",949.894000000029,1
"e1",7565167,"Self-Triangle Task",2,63,"circle.png","Stranger","Mismatch ","Mismatch ",814.428999994067,1
"e1",7565167,"Self-Triangle Task",2,64,"btriangle.png","You","Match ","Match ",739.18999998807,1
"e1",7565167,"Self-Triangle Task",2,65,"square.png","Friend","Mismatch ","Mismatch ",1488.65299999999,1
"e1",7565167,"Self-Triangle Task",2,66,"circle.png","Friend","Match ","Match ",1008.42799999402,1
"e1",7565167,"Self-Triangle Task",2,67,"square.png","Friend","Mismatch ","Mismatch ",689.615999994043,1
"e1",7565167,"Self-Triangle Task",2,68,"btriangle.png","Stranger","Mismatch ","Mismatch ",895.313999976148,1
"e1",7565167,"Self-Triangle Task",2,69,"btriangle.png","You","Match ","Match ",765.170999982103,1
"e1",7565167,"Self-Triangle Task",2,70,"circle.png","Stranger","Mismatch ","Mismatch ",860.789999999979,1
"e1",7565167,"Self-Triangle Task",2,71,"circle.png","You","Mismatch ","Mismatch ",805.18599999405,1
"e1",7565167,"Self-Triangle Task",2,72,"circle.png","Friend","Match ","Match ",1000.88500000001,1
"e1",7565167,"Self-Triangle Task",2,73,"circle.png","Friend","Match ","Match ",998.299999993993,1
"e1",7565167,"Self-Triangle Task",2,74,"btriangle.png","Stranger","Mismatch ","Mismatch ",789.395999976201,1
"e1",7565167,"Self-Triangle Task",2,75,"square.png","Stranger","Match ","Match ",989.054999976186,1
"e1",7565167,"Self-Triangle Task",2,76,"square.png","Stranger","Match ","Match ",835.839999988093,1
"e1",7565167,"Self-Triangle Task",2,77,"btriangle.png","Friend","Mismatch ","Mismatch ",960.11999997613,1
"e1",7565167,"Self-Triangle Task",2,78,"square.png","You","Mismatch ","Match ",1111.31399997615,0
"e1",7565167,"Self-Triangle Task",2,79,"btriangle.png","Friend","Mismatch ","Mismatch ",699.691999976174,1
"e1",7565167,"Self-Triangle Task",2,80,"square.png","Stranger","Match ","Match ",1065.18900000001,1
"e1",7565167,"Self-Triangle Task",2,81,"circle.png","Friend","Match ","Match ",1002.7959999881,1
"e1",7565167,"Self-Triangle Task",2,82,"circle.png","Friend","Match ","Match ",819.676999994088,1
