"partId","selfShape","nBlock","nTrial","shape","word","match","resp","rt","corr"
9892224,"Self-Circle Task",1,1,"btriangle.png","You","Mismatch ","",1500.96200007154,0
9892224,"Self-Circle Task",1,2,"square.png","Friend","Match ","",1500.87999999989,0
9892224,"Self-Circle Task",1,3,"circle.png","Friend","Mismatch ","Mismatch ",159.806000023847,1
9892224,"Self-Circle Task",1,4,"btriangle.png","Stranger","Match ","",1500.96600000001,0
9892224,"Self-Circle Task",1,5,"square.png","Stranger","Mismatch ","",1500.70200004778,0
9892224,"Self-Circle Task",1,6,"circle.png","You","Match ","Mismatch ",225.059000047622,0
9892224,"Self-Circle Task",1,7,"square.png","Friend","Match ","Match ",128.570999999996,1
9892224,"Self-Circle Task",1,8,"btriangle.png","Stranger","Match ","Mismatch ",558.816000047605,0
9892224,"Self-Circle Task",1,9,"square.png","You","Mismatch ","Match ",685.066000023857,0
9892224,"Self-Circle Task",1,10,"circle.png","You","Match ","Match ",654.0680000477,1
9892224,"Self-Circle Task",1,11,"btriangle.png","Friend","Mismatch ","Mismatch ",645.044999999925,1
9892224,"Self-Circle Task",1,12,"circle.png","Stranger","Mismatch ","Mismatch ",785.824000071501,1
9892224,"Self-Circle Task",2,13,"square.png","Friend","Match ","Match ",908.332999976119,1
9892224,"Self-Circle Task",2,14,"square.png","Stranger","Mismatch ","Mismatch ",535.614999976242,1
9892224,"Self-Circle Task",2,15,"square.png","You","Mismatch ","Mismatch ",1016.19100000011,1
9892224,"Self-Circle Task",2,16,"btriangle.png","You","Mismatch ","Mismatch ",904.166000071447,1
9892224,"Self-Circle Task",2,17,"btriangle.png","Friend","Mismatch ","Mismatch ",941.242000023834,1
9892224,"Self-Circle Task",2,18,"circle.png","Friend","Mismatch ","Mismatch ",1188.56400000001,1
9892224,"Self-Circle Task",2,19,"square.png","Friend","Match ","Mismatch ",1023.88099997607,0
9892224,"Self-Circle Task",2,20,"circle.png","You","Match ","Match ",657.388000071514,1
9892224,"Self-Circle Task",2,21,"btriangle.png","Stranger","Match ","Mismatch ",592.695000071544,0
9892224,"Self-Circle Task",2,22,"btriangle.png","Stranger","Match ","Mismatch ",497.143999976106,0
9892224,"Self-Circle Task",2,23,"circle.png","You","Match ","Match ",664.923000047682,1
9892224,"Self-Circle Task",2,24,"circle.png","Stranger","Mismatch ","Mismatch ",644.809000071604,1
9892224,"Self-Circle Task",3,25,"btriangle.png","You","Mismatch ","Mismatch ",891.813000000082,1
9892224,"Self-Circle Task",3,26,"btriangle.png","Stranger","Match ","Match ",904.452000047779,1
9892224,"Self-Circle Task",3,27,"square.png","Friend","Match ","Match ",1203.33100007148,1
9892224,"Self-Circle Task",3,28,"circle.png","You","Match ","Match ",662.433000023942,1
9892224,"Self-Circle Task",3,29,"square.png","You","Mismatch ","Mismatch ",991.59400002379,1
9892224,"Self-Circle Task",3,30,"btriangle.png","Friend","Mismatch ","",1500.84599997615,0
9892224,"Self-Circle Task",3,31,"circle.png","Stranger","Mismatch ","Mismatch ",613.3600000476,1
9892224,"Self-Circle Task",3,32,"circle.png","You","Match ","",1500.83299997612,0
9892224,"Self-Circle Task",3,33,"square.png","Stranger","Mismatch ","Mismatch ",639.841000000015,1
9892224,"Self-Circle Task",3,34,"circle.png","Friend","Mismatch ","Match ",726.667999976082,0
9892224,"Self-Circle Task",3,35,"btriangle.png","Stranger","Match ","Mismatch ",744.499000023818,0
9892224,"Self-Circle Task",3,36,"square.png","Friend","Match ","Match ",691.520000047749,1
9892224,"Self-Circle Task",4,37,"btriangle.png","You","Mismatch ","Mismatch ",741.622999976156,1
9892224,"Self-Circle Task",4,38,"btriangle.png","Friend","Mismatch ","Mismatch ",1347.05200007162,1
9892224,"Self-Circle Task",4,39,"btriangle.png","Stranger","Match ","Match ",841.351000071503,1
9892224,"Self-Circle Task",4,40,"square.png","Stranger","Mismatch ","Mismatch ",1059.85699997609,1
9892224,"Self-Circle Task",4,41,"circle.png","You","Match ","Match ",835.979000047781,1
9892224,"Self-Circle Task",4,42,"square.png","Friend","Match ","Mismatch ",724.926000071457,0
9892224,"Self-Circle Task",4,43,"circle.png","Stranger","Mismatch ","Match ",650.005999999819,0
9892224,"Self-Circle Task",4,44,"btriangle.png","Stranger","Match ","Mismatch ",1052.83000000007,0
9892224,"Self-Circle Task",4,45,"square.png","You","Mismatch ","",1500.52200002386,0
9892224,"Self-Circle Task",4,46,"circle.png","Friend","Mismatch ","Mismatch ",783.100999976043,1
9892224,"Self-Circle Task",4,47,"circle.png","You","Match ","Mismatch ",707.666999976151,0
9892224,"Self-Circle Task",4,48,"square.png","Friend","Match ","Mismatch ",542.76000004774,0
9892224,"Self-Circle Task",5,49,"circle.png","You","Match ","Match ",973.832000047667,1
9892224,"Self-Circle Task",5,50,"circle.png","You","Match ","Mismatch ",634.930999976117,0
9892224,"Self-Circle Task",5,51,"circle.png","Friend","Mismatch ","Mismatch ",685.368999976199,1
9892224,"Self-Circle Task",5,52,"square.png","Friend","Match ","Match ",939.371000000043,1
9892224,"Self-Circle Task",5,53,"square.png","Stranger","Mismatch ","Mismatch ",671.791999999899,1
9892224,"Self-Circle Task",5,54,"btriangle.png","Friend","Mismatch ","Mismatch ",784.276999976253,1
9892224,"Self-Circle Task",5,55,"btriangle.png","Stranger","Match ","Match ",755.604000071529,1
9892224,"Self-Circle Task",5,56,"btriangle.png","Stranger","Match ","Mismatch ",744.471999976085,0
9892224,"Self-Circle Task",5,57,"btriangle.png","You","Mismatch ","Mismatch ",842.893999976106,1
9892224,"Self-Circle Task",5,58,"square.png","Friend","Match ","Match ",1069.42400000012,1
9892224,"Self-Circle Task",5,59,"circle.png","Stranger","Mismatch ","Mismatch ",1064.20500004757,1
9892224,"Self-Circle Task",5,60,"square.png","You","Mismatch ","Mismatch ",929.800000000047,1
9892224,"Self-Circle Task",6,61,"circle.png","You","Match ","Match ",737.322000071639,1
9892224,"Self-Circle Task",6,62,"btriangle.png","Friend","Mismatch ","Mismatch ",1485.68000007141,1
9892224,"Self-Circle Task",6,63,"btriangle.png","You","Mismatch ","Match ",697.139000071445,0
9892224,"Self-Circle Task",6,64,"circle.png","Friend","Mismatch ","Mismatch ",941.415000047768,1
9892224,"Self-Circle Task",6,65,"circle.png","Stranger","Mismatch ","Mismatch ",716.483000000007,1
9892224,"Self-Circle Task",6,66,"btriangle.png","Stranger","Match ","Mismatch ",716.939000000013,0
9892224,"Self-Circle Task",6,67,"square.png","Stranger","Mismatch ","Mismatch ",643.195000023814,1
9892224,"Self-Circle Task",6,68,"btriangle.png","Stranger","Match ","Match ",679.478999976069,1
9892224,"Self-Circle Task",6,69,"circle.png","You","Match ","Match ",757.330000047572,1
9892224,"Self-Circle Task",6,70,"square.png","Friend","Match ","Match ",719.07800004771,1
9892224,"Self-Circle Task",6,71,"square.png","Friend","Match ","Match ",743.149000023957,1
9892224,"Self-Circle Task",6,72,"square.png","You","Mismatch ","Mismatch ",600.019000000088,1
9892224,"Self-Circle Task",7,73,"circle.png","You","Match ","Match ",1062.68900007149,1
9892224,"Self-Circle Task",7,74,"btriangle.png","Stranger","Match ","Mismatch ",889.902000047732,0
9892224,"Self-Circle Task",7,75,"btriangle.png","You","Mismatch ","Mismatch ",974.009999976261,1
9892224,"Self-Circle Task",7,76,"circle.png","Friend","Mismatch ","Mismatch ",983.462999999989,1
9892224,"Self-Circle Task",7,77,"btriangle.png","Friend","Mismatch ","Mismatch ",908.143999976106,1
9892224,"Self-Circle Task",7,78,"square.png","Friend","Match ","Mismatch ",1199.91399999987,0
9892224,"Self-Circle Task",7,79,"circle.png","Stranger","Mismatch ","Mismatch ",878.367000000086,1
9892224,"Self-Circle Task",7,80,"square.png","Stranger","Mismatch ","Match ",760.672000047751,0
9892224,"Self-Circle Task",7,81,"square.png","You","Mismatch ","Mismatch ",1007.57699997607,1
9892224,"Self-Circle Task",7,82,"btriangle.png","Stranger","Match ","Match ",1003.17400004761,1
9892224,"Self-Circle Task",7,83,"circle.png","You","Match ","Match ",701.493000071496,1
9892224,"Self-Circle Task",7,84,"square.png","Friend","Match ","Mismatch ",783.320000000065,0
9892224,"Self-Circle Task",8,85,"circle.png","Friend","Mismatch ","Match ",649.033000000054,0
9892224,"Self-Circle Task",8,86,"square.png","You","Mismatch ","Mismatch ",423.2970000715,1
9892224,"Self-Circle Task",8,87,"square.png","Friend","Match ","Mismatch ",438.959999976214,0
9892224,"Self-Circle Task",8,88,"btriangle.png","You","Mismatch ","Mismatch ",871.234000047669,1
9892224,"Self-Circle Task",8,89,"square.png","Friend","Match ","Mismatch ",735.888000071514,0
9892224,"Self-Circle Task",8,90,"btriangle.png","Friend","Mismatch ","Mismatch ",995.544999999926,1
9892224,"Self-Circle Task",8,91,"square.png","Stranger","Mismatch ","Mismatch ",695.425000000047,1
9892224,"Self-Circle Task",8,92,"btriangle.png","Stranger","Match ","Match ",1005.25499997614,1
9892224,"Self-Circle Task",8,93,"btriangle.png","Stranger","Match ","Match ",737.705000023823,1
9892224,"Self-Circle Task",8,94,"circle.png","You","Match ","Match ",823.758000047645,1
9892224,"Self-Circle Task",8,95,"circle.png","Stranger","Mismatch ","Match ",604.30700004776,0
9892224,"Self-Circle Task",8,96,"circle.png","You","Match ","Match ",647.868000000017,1
9892224,"Self-Circle Task",9,97,"circle.png","You","Match ","Mismatch ",462.644000071567,0
9892224,"Self-Circle Task",9,98,"btriangle.png","Stranger","Match ","Match ",1401.85000002384,1
9892224,"Self-Circle Task",9,99,"square.png","Stranger","Mismatch ","Mismatch ",718.128000071505,1
9892224,"Self-Circle Task",9,100,"btriangle.png","You","Mismatch ","Mismatch ",1108.63600004767,1
9892224,"Self-Circle Task",9,101,"circle.png","Stranger","Mismatch ","Mismatch ",716.303000023821,1
9892224,"Self-Circle Task",9,102,"btriangle.png","Stranger","Match ","Match ",838.733000071486,1
9892224,"Self-Circle Task",9,103,"circle.png","Friend","Mismatch ","Mismatch ",855.085000047693,1
9892224,"Self-Circle Task",9,104,"square.png","Friend","Match ","Match ",774.665000000037,1
9892224,"Self-Circle Task",9,105,"square.png","Friend","Match ","Mismatch ",988.566000071587,0
9892224,"Self-Circle Task",9,106,"square.png","You","Mismatch ","Match ",599.775000047637,0
9892224,"Self-Circle Task",9,107,"circle.png","You","Match ","Mismatch ",399.926999999909,0
9892224,"Self-Circle Task",9,108,"btriangle.png","Friend","Mismatch ","Match ",169.644000023836,0
9892224,"Self-Circle Task",10,109,"circle.png","You","Match ","Mismatch ",357.354000047781,0
9892224,"Self-Circle Task",10,110,"btriangle.png","Friend","Mismatch ","Match ",440.034000023734,0
9892224,"Self-Circle Task",10,111,"btriangle.png","You","Mismatch ","Mismatch ",882.634000071557,1
9892224,"Self-Circle Task",10,112,"btriangle.png","Stranger","Match ","Mismatch ",645.594000047771,0
9892224,"Self-Circle Task",10,113,"circle.png","Stranger","Mismatch ","Mismatch ",649.306000000099,1
9892224,"Self-Circle Task",10,114,"square.png","You","Mismatch ","Match ",668.348999999929,0
9892224,"Self-Circle Task",10,115,"square.png","Stranger","Mismatch ","Mismatch ",612.564000047743,1
9892224,"Self-Circle Task",10,116,"square.png","Friend","Match ","Match ",759.514999976149,1
9892224,"Self-Circle Task",10,117,"circle.png","Friend","Mismatch ","Mismatch ",818.481000023894,1
9892224,"Self-Circle Task",10,118,"square.png","Friend","Match ","Match ",978.741000071634,1
9892224,"Self-Circle Task",10,119,"btriangle.png","Stranger","Match ","Mismatch ",800.982000000076,0
9892224,"Self-Circle Task",10,120,"circle.png","You","Match ","Match ",728.937000047648,1
9910083,"Self-Circle Task",1,1,"btriangle.png","You","Mismatch ","Mismatch ",728.173999994033,1
9910083,"Self-Circle Task",1,2,"circle.png","You","Match ","Match ",759.569999991058,1
9910083,"Self-Circle Task",1,3,"square.png","Friend","Match ","Match ",622.637000002986,1
9910083,"Self-Circle Task",1,4,"square.png","You","Mismatch ","Mismatch ",803.089000002976,1
9910083,"Self-Circle Task",1,5,"circle.png","Stranger","Mismatch ","Mismatch ",863.891999994041,1
9910083,"Self-Circle Task",1,6,"square.png","Friend","Match ","Match ",626.205999994039,1
9910083,"Self-Circle Task",1,7,"square.png","Stranger","Mismatch ","Mismatch ",686.509999994043,1
9910083,"Self-Circle Task",1,8,"circle.png","Friend","Mismatch ","Mismatch ",961.068999994037,1
9910083,"Self-Circle Task",1,9,"btriangle.png","Friend","Mismatch ","Mismatch ",854.805000002976,1
9910083,"Self-Circle Task",1,10,"circle.png","You","Match ","Match ",632.826000000001,1
9910083,"Self-Circle Task",1,11,"btriangle.png","Stranger","Match ","Match ",796.45999999404,1
9910083,"Self-Circle Task",1,12,"btriangle.png","Stranger","Match ","Match ",706.538,1
9910083,"Self-Circle Task",2,13,"circle.png","You","Match ","Match ",586.448999991058,1
9910083,"Self-Circle Task",2,14,"square.png","You","Mismatch ","Mismatch ",688.36999999106,1
9910083,"Self-Circle Task",2,15,"square.png","Friend","Match ","Match ",538.000999991054,1
9910083,"Self-Circle Task",2,16,"circle.png","Stranger","Mismatch ","Mismatch ",962.304000000004,1
9910083,"Self-Circle Task",2,17,"circle.png","Friend","Mismatch ","Mismatch ",840.10500000001,1
9910083,"Self-Circle Task",2,18,"circle.png","You","Match ","Match ",651.204999997019,1
9910083,"Self-Circle Task",2,19,"btriangle.png","Stranger","Match ","Match ",845.960999994044,1
9910083,"Self-Circle Task",2,20,"btriangle.png","Friend","Mismatch ","Mismatch ",754.464000002976,1
9910083,"Self-Circle Task",2,21,"btriangle.png","Stranger","Match ","Match ",784.048999994033,1
9910083,"Self-Circle Task",2,22,"btriangle.png","You","Mismatch ","Mismatch ",734.055000002991,1
9910083,"Self-Circle Task",2,23,"square.png","Friend","Match ","Mismatch ",1013.20899999404,0
9910083,"Self-Circle Task",2,24,"square.png","Stranger","Mismatch ","Mismatch ",890.026000002981,1
9910083,"Self-Circle Task",3,25,"circle.png","You","Match ","Match ",658.590000002994,1
9910083,"Self-Circle Task",3,26,"circle.png","Friend","Mismatch ","Mismatch ",717.143999994034,1
9910083,"Self-Circle Task",3,27,"square.png","Friend","Match ","Match ",701.592999999993,1
9910083,"Self-Circle Task",3,28,"btriangle.png","You","Mismatch ","Mismatch ",792.189000002982,1
9910083,"Self-Circle Task",3,29,"square.png","Friend","Match ","Match ",685.01099999703,1
9910083,"Self-Circle Task",3,30,"btriangle.png","Friend","Mismatch ","Mismatch ",813.721000002988,1
9910083,"Self-Circle Task",3,31,"square.png","You","Mismatch ","Mismatch ",682.217999997025,1
9910083,"Self-Circle Task",3,32,"btriangle.png","Stranger","Match ","Match ",741.17699999403,1
9910083,"Self-Circle Task",3,33,"circle.png","You","Match ","Match ",564.083000000013,1
9910083,"Self-Circle Task",3,34,"btriangle.png","Stranger","Match ","Match ",690.838999991072,1
9910083,"Self-Circle Task",3,35,"square.png","Stranger","Mismatch ","Mismatch ",1036.02199999106,1
9910083,"Self-Circle Task",3,36,"circle.png","Stranger","Mismatch ","Mismatch ",735.986999999994,1
9910083,"Self-Circle Task",4,37,"square.png","Friend","Match ","Match ",662.734999991051,1
9910083,"Self-Circle Task",4,38,"btriangle.png","You","Mismatch ","Mismatch ",688.859999994049,1
9910083,"Self-Circle Task",4,39,"btriangle.png","Stranger","Match ","Match ",874.219999994035,1
9910083,"Self-Circle Task",4,40,"square.png","Stranger","Mismatch ","Mismatch ",981.838999991072,1
9910083,"Self-Circle Task",4,41,"circle.png","Stranger","Mismatch ","Mismatch ",737.794999994047,1
9910083,"Self-Circle Task",4,42,"circle.png","You","Match ","Match ",601.415999999997,1
9910083,"Self-Circle Task",4,43,"square.png","You","Mismatch ","Mismatch ",719.853999997023,1
9910083,"Self-Circle Task",4,44,"circle.png","You","Match ","Match ",600.000999991054,1
9910083,"Self-Circle Task",4,45,"circle.png","Friend","Mismatch ","Mismatch ",893.909000002983,1
9910083,"Self-Circle Task",4,46,"square.png","Friend","Match ","Match ",711.262999997009,1
9910083,"Self-Circle Task",4,47,"btriangle.png","Friend","Mismatch ","Mismatch ",695.252999999997,1
9910083,"Self-Circle Task",4,48,"btriangle.png","Stranger","Match ","Match ",746.184999997029,1
9910083,"Self-Circle Task",5,49,"btriangle.png","Friend","Mismatch ","Mismatch ",1169.13300000297,1
9910083,"Self-Circle Task",5,50,"square.png","Friend","Match ","Match ",614.669999994047,1
9910083,"Self-Circle Task",5,51,"square.png","Stranger","Mismatch ","Mismatch ",1035.53800000297,1
9910083,"Self-Circle Task",5,52,"circle.png","You","Match ","Match ",598.865999994043,1
9910083,"Self-Circle Task",5,53,"circle.png","Friend","Mismatch ","Mismatch ",844.250000002969,1
9910083,"Self-Circle Task",5,54,"circle.png","You","Match ","Match ",559.454999999987,1
9910083,"Self-Circle Task",5,55,"btriangle.png","You","Mismatch ","Mismatch ",726.350000000006,1
9910083,"Self-Circle Task",5,56,"btriangle.png","Stranger","Match ","Match ",855.437000000005,1
9910083,"Self-Circle Task",5,57,"btriangle.png","Stranger","Match ","Match ",744.915999999997,1
9910083,"Self-Circle Task",5,58,"circle.png","Stranger","Mismatch ","Mismatch ",895.900000002992,1
9910083,"Self-Circle Task",5,59,"square.png","Friend","Match ","Match ",690.116000002978,1
9910083,"Self-Circle Task",5,60,"square.png","You","Mismatch ","Mismatch ",819.823999999993,1
9910083,"Self-Circle Task",6,61,"circle.png","You","Match ","Match ",529.69100000296,1
9910083,"Self-Circle Task",6,62,"circle.png","You","Match ","Match ",521.287999997032,1
9910083,"Self-Circle Task",6,63,"btriangle.png","Stranger","Match ","Match ",714.157999991032,1
9910083,"Self-Circle Task",6,64,"btriangle.png","You","Mismatch ","Mismatch ",786.898999997007,1
9910083,"Self-Circle Task",6,65,"square.png","Stranger","Mismatch ","Mismatch ",896.868999991042,1
9910083,"Self-Circle Task",6,66,"circle.png","Friend","Mismatch ","Mismatch ",888.729999999981,1
9910083,"Self-Circle Task",6,67,"square.png","You","Mismatch ","Mismatch ",729.866999991063,1
9910083,"Self-Circle Task",6,68,"square.png","Friend","Match ","Match ",745.405999991053,1
9910083,"Self-Circle Task",6,69,"square.png","Friend","Match ","Match ",609.324999997043,1
9910083,"Self-Circle Task",6,70,"btriangle.png","Friend","Mismatch ","Mismatch ",773.473000002967,1
9910083,"Self-Circle Task",6,71,"circle.png","Stranger","Mismatch ","Mismatch ",931.614999994054,1
9910083,"Self-Circle Task",6,72,"btriangle.png","Stranger","Match ","Match ",770.261999991082,1
9910083,"Self-Circle Task",7,73,"circle.png","Friend","Mismatch ","Mismatch ",929.100999996997,1
9910083,"Self-Circle Task",7,74,"btriangle.png","Stranger","Match ","Match ",784.587000002968,1
9910083,"Self-Circle Task",7,75,"square.png","Stranger","Mismatch ","Mismatch ",893.296999991057,1
9910083,"Self-Circle Task",7,76,"square.png","Friend","Match ","Match ",935.081000000006,1
9910083,"Self-Circle Task",7,77,"btriangle.png","Friend","Mismatch ","Mismatch ",805.696999999986,1
9910083,"Self-Circle Task",7,78,"circle.png","You","Match ","Match ",570.444999991043,1
9910083,"Self-Circle Task",7,79,"btriangle.png","You","Mismatch ","Mismatch ",745.591999994067,1
9910083,"Self-Circle Task",7,80,"btriangle.png","Stranger","Match ","Match ",744.520000000019,1
9910083,"Self-Circle Task",7,81,"circle.png","You","Match ","Match ",808.995999999985,1
9910083,"Self-Circle Task",7,82,"circle.png","Stranger","Mismatch ","Mismatch ",780.706999997026,1
9910083,"Self-Circle Task",7,83,"square.png","Friend","Match ","Match ",713.365999997011,1
9910083,"Self-Circle Task",7,84,"square.png","You","Mismatch ","Mismatch ",994.744999997027,1
9910083,"Self-Circle Task",8,85,"square.png","Friend","Match ","Match ",726.636999999988,1
9910083,"Self-Circle Task",8,86,"circle.png","You","Match ","Match ",648.316999997012,1
9910083,"Self-Circle Task",8,87,"square.png","Stranger","Mismatch ","Mismatch ",1180.04599999997,1
9910083,"Self-Circle Task",8,88,"circle.png","You","Match ","Match ",624.684999997029,1
9910083,"Self-Circle Task",8,89,"btriangle.png","Stranger","Match ","Match ",1001.745,1
9910083,"Self-Circle Task",8,90,"btriangle.png","Friend","Mismatch ","Mismatch ",849.549999991083,1
9910083,"Self-Circle Task",8,91,"btriangle.png","Stranger","Match ","Mismatch ",997.816999997012,0
9910083,"Self-Circle Task",8,92,"square.png","You","Mismatch ","Mismatch ",786.141999994055,1
9910083,"Self-Circle Task",8,93,"square.png","Friend","Match ","Match ",784.626000002958,1
9910083,"Self-Circle Task",8,94,"circle.png","Stranger","Mismatch ","Mismatch ",845.528999991075,1
9910083,"Self-Circle Task",8,95,"btriangle.png","You","Mismatch ","Mismatch ",727.922000002989,1
9910083,"Self-Circle Task",8,96,"circle.png","Friend","Mismatch ","Mismatch ",896.275999997044,1
9910083,"Self-Circle Task",9,97,"square.png","Friend","Match ","Match ",801.262999997009,1
9910083,"Self-Circle Task",9,98,"circle.png","You","Match ","Match ",606.868000000017,1
9910083,"Self-Circle Task",9,99,"btriangle.png","Stranger","Match ","Match ",715.787999991036,1
9910083,"Self-Circle Task",9,100,"circle.png","You","Match ","Match ",563.564999997034,1
9910083,"Self-Circle Task",9,101,"btriangle.png","You","Mismatch ","Mismatch ",691.831000002974,1
9910083,"Self-Circle Task",9,102,"square.png","You","Mismatch ","Mismatch ",726.377999999968,1
9910083,"Self-Circle Task",9,103,"btriangle.png","Friend","Mismatch ","Mismatch ",876.652999997023,1
9910083,"Self-Circle Task",9,104,"square.png","Friend","Match ","Match ",623.531999991043,1
9910083,"Self-Circle Task",9,105,"square.png","Stranger","Mismatch ","Mismatch ",684.584999991057,1
9910083,"Self-Circle Task",9,106,"circle.png","Stranger","Mismatch ","Mismatch ",820.884999994014,1
9910083,"Self-Circle Task",9,107,"circle.png","Friend","Mismatch ","Mismatch ",882.475999994029,1
9910083,"Self-Circle Task",9,108,"btriangle.png","Stranger","Match ","Match ",763.441999997012,1
9910083,"Self-Circle Task",10,109,"circle.png","Stranger","Mismatch ","Mismatch ",705.517999991076,1
9910083,"Self-Circle Task",10,110,"btriangle.png","Stranger","Match ","Match ",778.680000002962,1
9910083,"Self-Circle Task",10,111,"square.png","You","Mismatch ","Mismatch ",695.942999997002,1
9910083,"Self-Circle Task",10,112,"square.png","Stranger","Mismatch ","Mismatch ",1185.56999999704,1
9910083,"Self-Circle Task",10,113,"btriangle.png","Stranger","Match ","Match ",662.331000002974,1
9910083,"Self-Circle Task",10,114,"btriangle.png","You","Mismatch ","Mismatch ",688.136999997019,1
9910083,"Self-Circle Task",10,115,"circle.png","Friend","Mismatch ","Mismatch ",801.818000000028,1
9910083,"Self-Circle Task",10,116,"square.png","Friend","Match ","Match ",607.867999997048,1
9910083,"Self-Circle Task",10,117,"circle.png","You","Match ","Match ",612.165999997,1
9910083,"Self-Circle Task",10,118,"btriangle.png","Friend","Mismatch ","Mismatch ",785.288999994053,1
9910083,"Self-Circle Task",10,119,"circle.png","You","Match ","Match ",574.71599999402,1
9910083,"Self-Circle Task",10,120,"square.png","Friend","Match ","Match ",651.466000000015,1
9910308,"Self-Circle Task",1,1,"btriangle.png","Friend","Mismatch ","Mismatch ",1144.10800000001,1
9910308,"Self-Circle Task",1,2,"square.png","Stranger","Mismatch ","Mismatch ",886.07099999403,1
9910308,"Self-Circle Task",1,3,"square.png","You","Mismatch ","Mismatch ",919.294999982114,1
9910308,"Self-Circle Task",1,4,"circle.png","You","Match ","Match ",933.756999976147,1
9910308,"Self-Circle Task",1,5,"square.png","Friend","Match ","Match ",791.052999994048,1
9910308,"Self-Circle Task",1,6,"circle.png","You","Match ","Match ",933.423999999999,1
9910308,"Self-Circle Task",1,7,"btriangle.png","You","Mismatch ","Mismatch ",907.029999994033,1
9910308,"Self-Circle Task",1,8,"square.png","Friend","Match ","Match ",838.499000000011,1
9910308,"Self-Circle Task",1,9,"btriangle.png","Stranger","Match ","Match ",995.126999999979,1
9910308,"Self-Circle Task",1,10,"circle.png","Stranger","Mismatch ","Mismatch ",900.144999976153,1
9910308,"Self-Circle Task",1,11,"btriangle.png","Stranger","Match ","Match ",1073.26699999999,1
9910308,"Self-Circle Task",1,12,"circle.png","Friend","Mismatch ","Mismatch ",932.046999982122,1
9910308,"Self-Circle Task",2,13,"square.png","Stranger","Mismatch ","Mismatch ",1062.30300000001,1
9910308,"Self-Circle Task",2,14,"btriangle.png","Friend","Mismatch ","Mismatch ",1053.394,1
9910308,"Self-Circle Task",2,15,"circle.png","Friend","Mismatch ","Mismatch ",802.939999976166,1
9910308,"Self-Circle Task",2,16,"circle.png","You","Match ","Mismatch ",885.736999994027,0
9910308,"Self-Circle Task",2,17,"square.png","Friend","Match ","Match ",939.686999976169,1
9910308,"Self-Circle Task",2,18,"circle.png","You","Match ","Match ",685.182999988087,1
9910308,"Self-Circle Task",2,19,"btriangle.png","Stranger","Match ","Mismatch ",942.381999994046,0
9910308,"Self-Circle Task",2,20,"btriangle.png","You","Mismatch ","Mismatch ",1039.54500000001,1
9910308,"Self-Circle Task",2,21,"btriangle.png","Stranger","Match ","Match ",979.663,1
9910308,"Self-Circle Task",2,22,"square.png","Friend","Match ","Mismatch ",1076.36099998807,0
9910308,"Self-Circle Task",2,23,"circle.png","Stranger","Mismatch ","Mismatch ",746.806999994034,1
9910308,"Self-Circle Task",2,24,"square.png","You","Mismatch ","Mismatch ",893.007999988069,1
9910308,"Self-Circle Task",3,25,"circle.png","Friend","Mismatch ","Mismatch ",978.910000000004,1
9910308,"Self-Circle Task",3,26,"circle.png","Stranger","Mismatch ","Mismatch ",904.372999982123,1
9910308,"Self-Circle Task",3,27,"btriangle.png","Friend","Mismatch ","Mismatch ",896.920999982132,1
9910308,"Self-Circle Task",3,28,"square.png","Friend","Match ","Match ",825.50099998212,1
9910308,"Self-Circle Task",3,29,"circle.png","You","Match ","Match ",931.29800000001,1
9910308,"Self-Circle Task",3,30,"btriangle.png","Stranger","Match ","Mismatch ",952.097999994032,0
9910308,"Self-Circle Task",3,31,"circle.png","You","Match ","Match ",688.605999976164,1
9910308,"Self-Circle Task",3,32,"square.png","Friend","Match ","Match ",766.273000000016,1
9910308,"Self-Circle Task",3,33,"square.png","You","Mismatch ","Mismatch ",1249.31899997615,1
9910308,"Self-Circle Task",3,34,"square.png","Stranger","Mismatch ","Mismatch ",1120.41100000002,1
9910308,"Self-Circle Task",3,35,"btriangle.png","You","Mismatch ","Mismatch ",1027.69899999403,1
9910308,"Self-Circle Task",3,36,"btriangle.png","Stranger","Match ","Match ",859.180999994045,1
9910308,"Self-Circle Task",4,37,"btriangle.png","Stranger","Match ","Mismatch ",1105.31200000003,0
9910308,"Self-Circle Task",4,38,"btriangle.png","You","Mismatch ","Mismatch ",778.195999994059,1
9910308,"Self-Circle Task",4,39,"square.png","Friend","Match ","Match ",843.114000000001,1
9910308,"Self-Circle Task",4,40,"circle.png","Stranger","Mismatch ","Mismatch ",1486.20999998809,1
9910308,"Self-Circle Task",4,41,"square.png","You","Mismatch ","Mismatch ",1178.40399997617,1
9910308,"Self-Circle Task",4,42,"btriangle.png","Stranger","Match ","Match ",814.21499999403,1
9910308,"Self-Circle Task",4,43,"square.png","Stranger","Mismatch ","Mismatch ",1094.42299998214,1
9910308,"Self-Circle Task",4,44,"circle.png","You","Match ","Match ",758.359999976179,1
9910308,"Self-Circle Task",4,45,"circle.png","You","Match ","Match ",766.451999988058,1
9910308,"Self-Circle Task",4,46,"btriangle.png","Friend","Mismatch ","Mismatch ",1107.1599999821,1
9910308,"Self-Circle Task",4,47,"circle.png","Friend","Mismatch ","Mismatch ",939.071999982116,1
9910308,"Self-Circle Task",4,48,"square.png","Friend","Match ","Match ",857.84899999405,1
9910308,"Self-Circle Task",5,49,"square.png","Friend","Match ","Match ",1142.21299997618,1
9910308,"Self-Circle Task",5,50,"btriangle.png","You","Mismatch ","Mismatch ",816.434999976133,1
9910308,"Self-Circle Task",5,51,"circle.png","You","Match ","Match ",1047.59500000003,1
9910308,"Self-Circle Task",5,52,"btriangle.png","Stranger","Match ","Match ",1082.55999999406,1
9910308,"Self-Circle Task",5,53,"square.png","Stranger","Mismatch ","Mismatch ",1165.00999997614,1
9910308,"Self-Circle Task",5,54,"circle.png","Friend","Mismatch ","Mismatch ",1069.24699997617,1
9910308,"Self-Circle Task",5,55,"circle.png","You","Match ","Match ",903.847999999998,1
9910308,"Self-Circle Task",5,56,"btriangle.png","Friend","Mismatch ","Mismatch ",1004.05300000001,1
9910308,"Self-Circle Task",5,57,"circle.png","Stranger","Mismatch ","Match ",876.119999988063,0
9910308,"Self-Circle Task",5,58,"square.png","Friend","Match ","Match ",870.718000000052,1
9910308,"Self-Circle Task",5,59,"square.png","You","Mismatch ","Mismatch ",953.164999999979,1
9910308,"Self-Circle Task",5,60,"btriangle.png","Stranger","Match ","Match ",1009.85399999405,1
9910308,"Self-Circle Task",6,61,"square.png","Friend","Match ","Match ",941.654999976163,1
9910308,"Self-Circle Task",6,62,"circle.png","You","Match ","Match ",666.642999999982,1
9910308,"Self-Circle Task",6,63,"btriangle.png","Friend","Mismatch ","Mismatch ",862.727999982133,1
9910308,"Self-Circle Task",6,64,"circle.png","Friend","Mismatch ","Mismatch ",837.32799999998,1
9910308,"Self-Circle Task",6,65,"btriangle.png","You","Mismatch ","Mismatch ",879.736000000034,1
9910308,"Self-Circle Task",6,66,"circle.png","You","Match ","Match ",833.684999999998,1
9910308,"Self-Circle Task",6,67,"btriangle.png","Stranger","Match ","Match ",832.190999994054,1
9910308,"Self-Circle Task",6,68,"square.png","Friend","Match ","Match ",871.885000000009,1
9910308,"Self-Circle Task",6,69,"btriangle.png","Stranger","Match ","Mismatch ",984.028999988106,0
9910308,"Self-Circle Task",6,70,"square.png","Stranger","Mismatch ","Mismatch ",973.142999976175,1
9910308,"Self-Circle Task",6,71,"circle.png","Stranger","Mismatch ","Mismatch ",732.034999999974,1
9910308,"Self-Circle Task",6,72,"square.png","You","Mismatch ","Mismatch ",774.416999988083,1
9910308,"Self-Circle Task",7,73,"square.png","Friend","Match ","Match ",705.871999982104,1
9910308,"Self-Circle Task",7,74,"circle.png","Friend","Mismatch ","Mismatch ",728.340999982145,1
9910308,"Self-Circle Task",7,75,"square.png","Stranger","Mismatch ","Mismatch ",1153.62400000001,1
9910308,"Self-Circle Task",7,76,"btriangle.png","Stranger","Match ","Match ",771.186999994039,1
9910308,"Self-Circle Task",7,77,"btriangle.png","Friend","Mismatch ","Mismatch ",1198.02299999999,1
9910308,"Self-Circle Task",7,78,"btriangle.png","Stranger","Match ","Match ",815.052999988082,1
9910308,"Self-Circle Task",7,79,"circle.png","You","Match ","Match ",801.749000000011,1
9910308,"Self-Circle Task",7,80,"square.png","Friend","Match ","Match ",751.59999997617,1
9910308,"Self-Circle Task",7,81,"circle.png","Stranger","Mismatch ","Mismatch ",741.695000000007,1
9910308,"Self-Circle Task",7,82,"btriangle.png","You","Mismatch ","Mismatch ",767.530999994022,1
9910308,"Self-Circle Task",7,83,"circle.png","You","Match ","Match ",672.002000000037,1
9910308,"Self-Circle Task",7,84,"square.png","You","Mismatch ","Mismatch ",726.165000000037,1
9910308,"Self-Circle Task",8,85,"circle.png","Friend","Mismatch ","Mismatch ",953.271999988065,1
9910308,"Self-Circle Task",8,86,"circle.png","You","Match ","Match ",938.970999982092,1
9910308,"Self-Circle Task",8,87,"square.png","You","Mismatch ","Mismatch ",716.907000000007,1
9910308,"Self-Circle Task",8,88,"circle.png","Stranger","Mismatch ","Mismatch ",719.934000000008,1
9910308,"Self-Circle Task",8,89,"btriangle.png","You","Mismatch ","Mismatch ",900.658999988053,1
9910308,"Self-Circle Task",8,90,"square.png","Friend","Match ","Match ",1003.5419999999,1
9910308,"Self-Circle Task",8,91,"square.png","Friend","Match ","Mismatch ",1154.77499997616,0
9910308,"Self-Circle Task",8,92,"square.png","Stranger","Mismatch ","Mismatch ",826.664999982109,1
9910308,"Self-Circle Task",8,93,"btriangle.png","Stranger","Match ","Mismatch ",1243.6929999821,0
9910308,"Self-Circle Task",8,94,"btriangle.png","Stranger","Match ","Match ",595.46199998213,1
9910308,"Self-Circle Task",8,95,"btriangle.png","Friend","Mismatch ","Mismatch ",867.867999994021,1
9910308,"Self-Circle Task",8,96,"circle.png","You","Match ","Match ",678.646999982127,1
9910308,"Self-Circle Task",9,97,"btriangle.png","Friend","Mismatch ","Mismatch ",902.82399998809,1
9910308,"Self-Circle Task",9,98,"square.png","Stranger","Mismatch ","Mismatch ",858.812000000034,1
9910308,"Self-Circle Task",9,99,"square.png","You","Mismatch ","Mismatch ",745.678000000014,1
9910308,"Self-Circle Task",9,100,"circle.png","Stranger","Mismatch ","Mismatch ",1079.50799999997,1
9910308,"Self-Circle Task",9,101,"circle.png","You","Match ","Match ",1094.66399997618,1
9910308,"Self-Circle Task",9,102,"btriangle.png","Stranger","Match ","Match ",867.045999982103,1
9910308,"Self-Circle Task",9,103,"circle.png","Friend","Mismatch ","Mismatch ",831.184000000008,1
9910308,"Self-Circle Task",9,104,"btriangle.png","You","Mismatch ","Mismatch ",1250.10699999402,1
9910308,"Self-Circle Task",9,105,"circle.png","You","Match ","Match ",675.52999999997,1
9910308,"Self-Circle Task",9,106,"btriangle.png","Stranger","Match ","Match ",751.084000000032,1
9910308,"Self-Circle Task",9,107,"square.png","Friend","Match ","Match ",700.732999976142,1
9910308,"Self-Circle Task",9,108,"square.png","Friend","Match ","Match ",640.026000000013,1
9910308,"Self-Circle Task",10,109,"square.png","Friend","Match ","Match ",774.059000000008,1
9910308,"Self-Circle Task",10,110,"circle.png","You","Match ","Match ",633.488999988069,1
9910308,"Self-Circle Task",10,111,"btriangle.png","Stranger","Match ","Match ",874.681999994034,1
9910308,"Self-Circle Task",10,112,"square.png","Friend","Match ","Match ",1279.07100000005,1
9910308,"Self-Circle Task",10,113,"circle.png","Stranger","Mismatch ","Mismatch ",868.133999982092,1
9910308,"Self-Circle Task",10,114,"btriangle.png","Stranger","Match ","Match ",873.168999982125,1
9910308,"Self-Circle Task",10,115,"btriangle.png","Friend","Mismatch ","Mismatch ",716.666000000027,1
9910308,"Self-Circle Task",10,116,"circle.png","You","Match ","Match ",664.277000000002,1
9910308,"Self-Circle Task",10,117,"btriangle.png","You","Mismatch ","Mismatch ",1071.89500000002,1
9910308,"Self-Circle Task",10,118,"circle.png","Friend","Mismatch ","Mismatch ",905.911999976146,1
9910308,"Self-Circle Task",10,119,"square.png","Stranger","Mismatch ","Mismatch ",979.823999994085,1
9910308,"Self-Circle Task",10,120,"square.png","You","Mismatch ","Mismatch ",747.989999982063,1
9928192,"Self-Circle Task",1,1,"circle.png","Friend","Mismatch ","Mismatch ",1056.75899985695,1
9928192,"Self-Circle Task",1,2,"square.png","Friend","Match ","Match ",868.827999904635,1
9928192,"Self-Circle Task",1,3,"btriangle.png","Stranger","Match ","Match ",1160.98299985695,1
9928192,"Self-Circle Task",1,4,"btriangle.png","You","Mismatch ","Mismatch ",776.839999999997,1
9928192,"Self-Circle Task",1,5,"square.png","You","Mismatch ","Mismatch ",1017.11199995232,1
9928192,"Self-Circle Task",1,6,"square.png","Stranger","Mismatch ","Mismatch ",767.251999999993,1
9928192,"Self-Circle Task",1,7,"btriangle.png","Stranger","Match ","Match ",632.011999904629,1
9928192,"Self-Circle Task",1,8,"square.png","Friend","Match ","Match ",1054.022,1
9928192,"Self-Circle Task",1,9,"circle.png","Stranger","Mismatch ","Mismatch ",762.558999809262,1
9928192,"Self-Circle Task",1,10,"circle.png","You","Match ","Match ",347.048999999999,1
9928192,"Self-Circle Task",1,11,"btriangle.png","Friend","Mismatch ","Mismatch ",996.745999999999,1
9928192,"Self-Circle Task",1,12,"circle.png","You","Match ","Mismatch ",955.832999999999,0
9928192,"Self-Circle Task",2,13,"circle.png","You","Match ","Match ",548.523999809258,1
9928192,"Self-Circle Task",2,14,"square.png","Friend","Match ","Match ",798.361999999994,1
9928192,"Self-Circle Task",2,15,"btriangle.png","You","Mismatch ","Mismatch ",629.164000000004,1
9928192,"Self-Circle Task",2,16,"square.png","Friend","Match ","Match ",427.275999999998,1
9928192,"Self-Circle Task",2,17,"square.png","Stranger","Mismatch ","Mismatch ",697.664999904635,1
9928192,"Self-Circle Task",2,18,"btriangle.png","Friend","Mismatch ","Mismatch ",885.039999904635,1
9928192,"Self-Circle Task",2,19,"circle.png","You","Match ","Match ",664.063999856953,1
9928192,"Self-Circle Task",2,20,"circle.png","Friend","Mismatch ","Mismatch ",580.884999999995,1
9928192,"Self-Circle Task",2,21,"circle.png","Stranger","Mismatch ","Mismatch ",349.562999999995,1
9928192,"Self-Circle Task",2,22,"btriangle.png","Stranger","Match ","Match ",1102.72999985695,1
9928192,"Self-Circle Task",2,23,"square.png","You","Mismatch ","Mismatch ",944.991999856953,1
9928192,"Self-Circle Task",2,24,"btriangle.png","Stranger","Match ","",1503.68399985695,0
9928192,"Self-Circle Task",3,25,"circle.png","Stranger","Mismatch ","Mismatch ",832.695000000007,1
9928192,"Self-Circle Task",3,26,"circle.png","You","Match ","Match ",638.492999856942,1
9928192,"Self-Circle Task",3,27,"circle.png","You","Match ","Match ",435.949999856952,1
9928192,"Self-Circle Task",3,28,"btriangle.png","You","Mismatch ","Mismatch ",561.579999856942,1
9928192,"Self-Circle Task",3,29,"circle.png","Friend","Mismatch ","Mismatch ",674.714999809279,1
9928192,"Self-Circle Task",3,30,"btriangle.png","Stranger","Match ","Match ",782.884999952308,1
9928192,"Self-Circle Task",3,31,"square.png","You","Mismatch ","Mismatch ",670.464999856951,1
9928192,"Self-Circle Task",3,32,"square.png","Friend","Match ","Match ",738.529999856954,1
9928192,"Self-Circle Task",3,33,"square.png","Friend","Match ","Match ",595.964999999997,1
9928192,"Self-Circle Task",3,34,"btriangle.png","Friend","Mismatch ","Mismatch ",531.364999856945,1
9928192,"Self-Circle Task",3,35,"square.png","Stranger","Mismatch ","Mismatch ",693.708000000013,1
9928192,"Self-Circle Task",3,36,"btriangle.png","Stranger","Match ","Match ",824.898999952304,1
9928192,"Self-Circle Task",4,37,"circle.png","You","Match ","Match ",583.193999809271,1
9928192,"Self-Circle Task",4,38,"square.png","You","Mismatch ","Mismatch ",535.094999856956,1
9928192,"Self-Circle Task",4,39,"btriangle.png","Friend","Mismatch ","Match ",833.118999856961,0
9928192,"Self-Circle Task",4,40,"btriangle.png","Stranger","Match ","Match ",702.550999856961,1
9928192,"Self-Circle Task",4,41,"btriangle.png","You","Mismatch ","Mismatch ",641.649999952322,1
9928192,"Self-Circle Task",4,42,"square.png","Stranger","Mismatch ","Mismatch ",838.898999904632,1
9928192,"Self-Circle Task",4,43,"circle.png","Friend","Mismatch ","Mismatch ",611.835999952309,1
9928192,"Self-Circle Task",4,44,"square.png","Friend","Match ","Match ",594.741999856953,1
9928192,"Self-Circle Task",4,45,"square.png","Friend","Match ","Match ",658.787000000011,1
9928192,"Self-Circle Task",4,46,"circle.png","Stranger","Mismatch ","Mismatch ",710.953999856953,1
9928192,"Self-Circle Task",4,47,"btriangle.png","Stranger","Match ","Match ",793.87199990463,1
9928192,"Self-Circle Task",4,48,"circle.png","You","Match ","Match ",408.957999856939,1
9928192,"Self-Circle Task",5,49,"circle.png","Stranger","Mismatch ","Mismatch ",560.150999904639,1
9928192,"Self-Circle Task",5,50,"square.png","Friend","Match ","Match ",792.714999952324,1
9928192,"Self-Circle Task",5,51,"circle.png","Friend","Mismatch ","Mismatch ",583.90400000001,1
9928192,"Self-Circle Task",5,52,"circle.png","You","Match ","Match ",592.858000000007,1
9928192,"Self-Circle Task",5,53,"btriangle.png","You","Mismatch ","Mismatch ",479.97699990464,1
9928192,"Self-Circle Task",5,54,"btriangle.png","Stranger","Match ","Match ",707.956999952323,1
9928192,"Self-Circle Task",5,55,"square.png","Stranger","Mismatch ","Mismatch ",478.563999809266,1
9928192,"Self-Circle Task",5,56,"btriangle.png","Friend","Mismatch ","Mismatch ",498.878999952314,1
9928192,"Self-Circle Task",5,57,"btriangle.png","Stranger","Match ","Match ",630.706999999995,1
9928192,"Self-Circle Task",5,58,"square.png","Friend","Match ","Mismatch ",500.467000000004,0
9928192,"Self-Circle Task",5,59,"square.png","You","Mismatch ","Mismatch ",568.222999952326,1
9928192,"Self-Circle Task",5,60,"circle.png","You","Match ","Match ",920.370999952313,1
9928192,"Self-Circle Task",6,61,"circle.png","You","Match ","Match ",1330.93799995232,1
9928192,"Self-Circle Task",6,62,"circle.png","You","Match ","Match ",572.301999809279,1
9928192,"Self-Circle Task",6,63,"circle.png","Stranger","Mismatch ","Mismatch ",612.45499980927,1
9928192,"Self-Circle Task",6,64,"square.png","Friend","Match ","Match ",716.046999999991,1
9928192,"Self-Circle Task",6,65,"circle.png","Friend","Mismatch ","Mismatch ",765.963999809261,1
9928192,"Self-Circle Task",6,66,"btriangle.png","Stranger","Match ","Match ",806.606999809272,1
9928192,"Self-Circle Task",6,67,"square.png","Friend","Match ","Match ",733.40899985694,1
9928192,"Self-Circle Task",6,68,"btriangle.png","Stranger","Match ","Match ",719.423999856954,1
9928192,"Self-Circle Task",6,69,"square.png","Stranger","Mismatch ","Mismatch ",785.256999809237,1
9928192,"Self-Circle Task",6,70,"btriangle.png","Friend","Mismatch ","Mismatch ",832.743999856932,1
9928192,"Self-Circle Task",6,71,"square.png","You","Mismatch ","Match ",510.462999809242,0
9928192,"Self-Circle Task",6,72,"btriangle.png","You","Mismatch ","Mismatch ",577.889999809267,1
9928192,"Self-Circle Task",7,73,"circle.png","Friend","Mismatch ","Mismatch ",673.533999809239,1
9928192,"Self-Circle Task",7,74,"circle.png","You","Match ","Match ",517.641999809246,1
9928192,"Self-Circle Task",7,75,"circle.png","Stranger","Mismatch ","Mismatch ",511.753999904613,1
9928192,"Self-Circle Task",7,76,"btriangle.png","Friend","Mismatch ","Match ",715.266999809246,0
9928192,"Self-Circle Task",7,77,"square.png","Friend","Match ","Match ",677.863999904657,1
9928192,"Self-Circle Task",7,78,"btriangle.png","Stranger","Match ","Mismatch ",481.617999952345,0
9928192,"Self-Circle Task",7,79,"square.png","Stranger","Mismatch ","Mismatch ",565.780999809271,1
9928192,"Self-Circle Task",7,80,"btriangle.png","Stranger","Match ","Match ",526.741999952297,1
9928192,"Self-Circle Task",7,81,"square.png","You","Mismatch ","Mismatch ",704.842999809247,1
9928192,"Self-Circle Task",7,82,"circle.png","You","Match ","Match ",315.456999904651,1
9928192,"Self-Circle Task",7,83,"btriangle.png","You","Mismatch ","Mismatch ",518.53599990462,1
9928192,"Self-Circle Task",7,84,"square.png","Friend","Match ","Match ",737.201000000001,1
9928192,"Self-Circle Task",8,85,"circle.png","You","Match ","Match ",586.322999952303,1
9928192,"Self-Circle Task",8,86,"btriangle.png","Stranger","Match ","Match ",657.593999904639,1
9928192,"Self-Circle Task",8,87,"square.png","Friend","Match ","Match ",686.456999809248,1
9928192,"Self-Circle Task",8,88,"circle.png","Stranger","Mismatch ","Mismatch ",538.466999952332,1
9928192,"Self-Circle Task",8,89,"btriangle.png","You","Mismatch ","Match ",491.381999809237,0
9928192,"Self-Circle Task",8,90,"circle.png","Friend","Mismatch ","Mismatch ",598.856999904616,1
9928192,"Self-Circle Task",8,91,"square.png","Friend","Match ","Match ",622.374999904656,1
9928192,"Self-Circle Task",8,92,"circle.png","You","Match ","Match ",564.780999856943,1
9928192,"Self-Circle Task",8,93,"btriangle.png","Stranger","Match ","Match ",693.5569999523,1
9928192,"Self-Circle Task",8,94,"square.png","You","Mismatch ","Mismatch ",856.802999809268,1
9928192,"Self-Circle Task",8,95,"btriangle.png","Friend","Mismatch ","Mismatch ",789.279999904626,1
9928192,"Self-Circle Task",8,96,"square.png","Stranger","Mismatch ","Mismatch ",916.785999952292,1
9928192,"Self-Circle Task",9,97,"circle.png","Stranger","Mismatch ","Mismatch ",911.395999856934,1
9928192,"Self-Circle Task",9,98,"circle.png","You","Match ","Match ",489.492000000027,1
9928192,"Self-Circle Task",9,99,"btriangle.png","Friend","Mismatch ","Mismatch ",877.588999999978,1
9928192,"Self-Circle Task",9,100,"square.png","Friend","Match ","Match ",529.476000000024,1
9928192,"Self-Circle Task",9,101,"square.png","You","Mismatch ","Mismatch ",867.28599990462,1
9928192,"Self-Circle Task",9,102,"square.png","Stranger","Mismatch ","Mismatch ",671.837999904645,1
9928192,"Self-Circle Task",9,103,"circle.png","Friend","Mismatch ","Mismatch ",779.815999999992,1
9928192,"Self-Circle Task",9,104,"circle.png","You","Match ","Match ",508.087999952317,1
9928192,"Self-Circle Task",9,105,"btriangle.png","Stranger","Match ","Mismatch ",606.56199985696,0
9928192,"Self-Circle Task",9,106,"btriangle.png","You","Mismatch ","Mismatch ",621.494999999995,1
9928192,"Self-Circle Task",9,107,"btriangle.png","Stranger","Match ","Match ",795.697999904631,1
9928192,"Self-Circle Task",9,108,"square.png","Friend","Match ","Match ",619.902999999991,1
9928192,"Self-Circle Task",10,109,"square.png","Stranger","Mismatch ","Mismatch ",617.012999999977,1
9928192,"Self-Circle Task",10,110,"btriangle.png","Friend","Mismatch ","Mismatch ",759.869999904651,1
9928192,"Self-Circle Task",10,111,"circle.png","Stranger","Mismatch ","Mismatch ",720.472000000009,1
9928192,"Self-Circle Task",10,112,"circle.png","You","Match ","Match ",498.687999809277,1
9928192,"Self-Circle Task",10,113,"btriangle.png","Stranger","Match ","Match ",598.108000000007,1
9928192,"Self-Circle Task",10,114,"square.png","Friend","Match ","Match ",597.57699999999,1
9928192,"Self-Circle Task",10,115,"square.png","You","Mismatch ","Mismatch ",525.055999999982,1
9928192,"Self-Circle Task",10,116,"btriangle.png","Stranger","Match ","Match ",639.803000000014,1
9928192,"Self-Circle Task",10,117,"btriangle.png","You","Mismatch ","Mismatch ",581.035999952292,1
9928192,"Self-Circle Task",10,118,"circle.png","Friend","Mismatch ","Mismatch ",580.808999856934,1
9928192,"Self-Circle Task",10,119,"square.png","Friend","Match ","Match ",541.457999856968,1
9928192,"Self-Circle Task",10,120,"circle.png","You","Match ","Match ",494.685999904643,1
9939934,"Self-Circle Task",1,1,"btriangle.png","Stranger","Match ","Mismatch ",1023.03999999999,0
9939934,"Self-Circle Task",1,2,"square.png","Friend","Match ","Match ",778.899999999994,1
9939934,"Self-Circle Task",1,3,"circle.png","Stranger","Mismatch ","Mismatch ",720.520000000004,1
9939934,"Self-Circle Task",1,4,"circle.png","You","Match ","Match ",430.300000000003,1
9939934,"Self-Circle Task",1,5,"circle.png","You","Match ","Match ",587.559999999998,1
9939934,"Self-Circle Task",1,6,"square.png","You","Mismatch ","Mismatch ",725.440000000002,1
9939934,"Self-Circle Task",1,7,"btriangle.png","Stranger","Match ","Match ",737.979999999996,1
9939934,"Self-Circle Task",1,8,"square.png","Stranger","Mismatch ","Mismatch ",675.919999999998,1
9939934,"Self-Circle Task",1,9,"btriangle.png","You","Mismatch ","Match ",884.479999999996,0
9939934,"Self-Circle Task",1,10,"square.png","Friend","Match ","Match ",744.699999999997,1
9939934,"Self-Circle Task",1,11,"btriangle.png","Friend","Mismatch ","Mismatch ",800.639999999999,1
9939934,"Self-Circle Task",1,12,"circle.png","Friend","Mismatch ","Match ",759,0
9939934,"Self-Circle Task",2,13,"square.png","Friend","Match ","Match ",581.399999999994,1
9939934,"Self-Circle Task",2,14,"square.png","You","Mismatch ","Mismatch ",717.820000000007,1
9939934,"Self-Circle Task",2,15,"btriangle.png","You","Mismatch ","Mismatch ",757.399999999994,1
9939934,"Self-Circle Task",2,16,"circle.png","Stranger","Mismatch ","Mismatch ",783.779999999999,1
9939934,"Self-Circle Task",2,17,"square.png","Friend","Match ","Match ",690.839999999997,1
9939934,"Self-Circle Task",2,18,"circle.png","You","Match ","Match ",712.740000000005,1
9939934,"Self-Circle Task",2,19,"btriangle.png","Friend","Mismatch ","Mismatch ",998.98000000001,1
9939934,"Self-Circle Task",2,20,"square.png","Stranger","Mismatch ","Mismatch ",969.160000000004,1
9939934,"Self-Circle Task",2,21,"circle.png","Friend","Mismatch ","Mismatch ",879.140000000014,1
9939934,"Self-Circle Task",2,22,"circle.png","You","Match ","Match ",740.880000000005,1
9939934,"Self-Circle Task",2,23,"btriangle.png","Stranger","Match ","Mismatch ",1015.53999999998,0
9939934,"Self-Circle Task",2,24,"btriangle.png","Stranger","Match ","Match ",822.5,1
9939934,"Self-Circle Task",3,25,"btriangle.png","Friend","Mismatch ","Mismatch ",882.220000000001,1
9939934,"Self-Circle Task",3,26,"circle.png","You","Match ","Match ",661,1
9939934,"Self-Circle Task",3,27,"circle.png","You","Match ","Match ",775.160000000003,1
9939934,"Self-Circle Task",3,28,"circle.png","Stranger","Mismatch ","Mismatch ",685.760000000009,1
9939934,"Self-Circle Task",3,29,"btriangle.png","Stranger","Match ","Match ",996.820000000007,1
9939934,"Self-Circle Task",3,30,"btriangle.png","Stranger","Match ","Match ",836.040000000008,1
9939934,"Self-Circle Task",3,31,"circle.png","Friend","Mismatch ","Mismatch ",923.100000000006,1
9939934,"Self-Circle Task",3,32,"square.png","Friend","Match ","Match ",643.98000000001,1
9939934,"Self-Circle Task",3,33,"btriangle.png","You","Mismatch ","Mismatch ",677.420000000013,1
9939934,"Self-Circle Task",3,34,"square.png","Stranger","Mismatch ","Mismatch ",908.98000000001,1
9939934,"Self-Circle Task",3,35,"square.png","You","Mismatch ","Mismatch ",804.440000000002,1
9939934,"Self-Circle Task",3,36,"square.png","Friend","Match ","Match ",755.839999999997,1
9939934,"Self-Circle Task",4,37,"btriangle.png","Friend","Mismatch ","Mismatch ",869.119999999995,1
9939934,"Self-Circle Task",4,38,"btriangle.png","You","Mismatch ","Mismatch ",648.940000000002,1
9939934,"Self-Circle Task",4,39,"circle.png","You","Match ","Match ",451.700000000012,1
9939934,"Self-Circle Task",4,40,"square.png","Friend","Match ","Match ",869.799999999988,1
9939934,"Self-Circle Task",4,41,"square.png","Friend","Match ","Match ",843.51999999999,1
9939934,"Self-Circle Task",4,42,"circle.png","Stranger","Mismatch ","Mismatch ",677.700000000012,1
9939934,"Self-Circle Task",4,43,"square.png","Stranger","Mismatch ","Mismatch ",1069.29999999999,1
9939934,"Self-Circle Task",4,44,"btriangle.png","Stranger","Match ","Match ",774.320000000007,1
9939934,"Self-Circle Task",4,45,"circle.png","Friend","Mismatch ","Mismatch ",857.839999999997,1
9939934,"Self-Circle Task",4,46,"circle.png","You","Match ","Match ",590.359999999986,1
9939934,"Self-Circle Task",4,47,"btriangle.png","Stranger","Match ","Match ",1098.12,1
9939934,"Self-Circle Task",4,48,"square.png","You","Mismatch ","Mismatch ",739.51999999999,1
9939934,"Self-Circle Task",5,49,"btriangle.png","Friend","Mismatch ","Mismatch ",963.559999999998,1
9939934,"Self-Circle Task",5,50,"circle.png","Stranger","Mismatch ","Mismatch ",811.98000000001,1
9939934,"Self-Circle Task",5,51,"btriangle.png","You","Mismatch ","Mismatch ",941.5,1
9939934,"Self-Circle Task",5,52,"square.png","Stranger","Mismatch ","Mismatch ",1147.62,1
9939934,"Self-Circle Task",5,53,"circle.png","You","Match ","Match ",807.059999999998,1
9939934,"Self-Circle Task",5,54,"square.png","Friend","Match ","Match ",1180.44,1
9939934,"Self-Circle Task",5,55,"square.png","You","Mismatch ","Mismatch ",632.660000000003,1
9939934,"Self-Circle Task",5,56,"btriangle.png","Stranger","Match ","Match ",854.959999999992,1
9939934,"Self-Circle Task",5,57,"btriangle.png","Stranger","Match ","Match ",646.51999999999,1
9939934,"Self-Circle Task",5,58,"circle.png","You","Match ","Match ",599.279999999999,1
9939934,"Self-Circle Task",5,59,"circle.png","Friend","Mismatch ","Mismatch ",598.079999999987,1
9939934,"Self-Circle Task",5,60,"square.png","Friend","Match ","Match ",798.899999999994,1
9939934,"Self-Circle Task",6,61,"square.png","You","Mismatch ","Mismatch ",889.01999999999,1
9939934,"Self-Circle Task",6,62,"btriangle.png","You","Mismatch ","Mismatch ",872.239999999991,1
9939934,"Self-Circle Task",6,63,"btriangle.png","Stranger","Match ","Match ",826.98000000001,1
9939934,"Self-Circle Task",6,64,"btriangle.png","Friend","Mismatch ","Mismatch ",675.779999999999,1
9939934,"Self-Circle Task",6,65,"circle.png","Stranger","Mismatch ","Mismatch ",979.400000000023,1
9939934,"Self-Circle Task",6,66,"btriangle.png","Stranger","Match ","Match ",720.200000000012,1
9939934,"Self-Circle Task",6,67,"square.png","Friend","Match ","Match ",732.799999999988,1
9939934,"Self-Circle Task",6,68,"square.png","Stranger","Mismatch ","Mismatch ",675.799999999988,1
9939934,"Self-Circle Task",6,69,"circle.png","You","Match ","Match ",555.380000000005,1
9939934,"Self-Circle Task",6,70,"circle.png","You","Match ","Match ",587.419999999984,1
9939934,"Self-Circle Task",6,71,"circle.png","Friend","Mismatch ","Mismatch ",693.280000000028,1
9939934,"Self-Circle Task",6,72,"square.png","Friend","Match ","Match ",638.159999999974,1
9939934,"Self-Circle Task",7,73,"circle.png","Friend","Mismatch ","Mismatch ",790.119999999995,1
9939934,"Self-Circle Task",7,74,"btriangle.png","Friend","Mismatch ","Mismatch ",693.099999999977,1
9939934,"Self-Circle Task",7,75,"square.png","You","Mismatch ","Match ",577.960000000021,0
9939934,"Self-Circle Task",7,76,"square.png","Friend","Match ","Match ",1307.5,1
9939934,"Self-Circle Task",7,77,"circle.png","You","Match ","Match ",565.380000000005,1
9939934,"Self-Circle Task",7,78,"square.png","Friend","Match ","Match ",1163.56,1
9939934,"Self-Circle Task",7,79,"square.png","Stranger","Mismatch ","Mismatch ",728.299999999988,1
9939934,"Self-Circle Task",7,80,"circle.png","Stranger","Mismatch ","Mismatch ",607.880000000005,1
9939934,"Self-Circle Task",7,81,"btriangle.png","Stranger","Match ","Mismatch ",434.059999999998,0
9939934,"Self-Circle Task",7,82,"circle.png","You","Match ","Match ",648.739999999991,1
9939934,"Self-Circle Task",7,83,"btriangle.png","You","Mismatch ","Mismatch ",781.5,1
9939934,"Self-Circle Task",7,84,"btriangle.png","Stranger","Match ","Match ",964.299999999988,1
9939934,"Self-Circle Task",8,85,"btriangle.png","You","Mismatch ","Mismatch ",771.739999999991,1
9939934,"Self-Circle Task",8,86,"btriangle.png","Stranger","Match ","Match ",945.400000000023,1
9939934,"Self-Circle Task",8,87,"circle.png","Friend","Mismatch ","Mismatch ",988.640000000014,1
9939934,"Self-Circle Task",8,88,"circle.png","You","Match ","Match ",869.880000000005,1
9939934,"Self-Circle Task",8,89,"btriangle.png","Stranger","Match ","Match ",847.719999999972,1
9939934,"Self-Circle Task",8,90,"square.png","Friend","Match ","Match ",879.739999999991,1
9939934,"Self-Circle Task",8,91,"circle.png","Stranger","Mismatch ","Mismatch ",863.559999999998,1
9939934,"Self-Circle Task",8,92,"btriangle.png","Friend","Mismatch ","Mismatch ",783.960000000021,1
9939934,"Self-Circle Task",8,93,"square.png","Stranger","Mismatch ","Mismatch ",1132.85999999999,1
9939934,"Self-Circle Task",8,94,"circle.png","You","Match ","Match ",679.380000000005,1
9939934,"Self-Circle Task",8,95,"square.png","You","Mismatch ","Mismatch ",835.960000000021,1
9939934,"Self-Circle Task",8,96,"square.png","Friend","Match ","Match ",709.080000000016,1
9939934,"Self-Circle Task",9,97,"btriangle.png","Stranger","Match ","Match ",741.359999999986,1
9939934,"Self-Circle Task",9,98,"circle.png","You","Match ","Match ",719.419999999984,1
9939934,"Self-Circle Task",9,99,"circle.png","You","Match ","Match ",713.940000000002,1
9939934,"Self-Circle Task",9,100,"btriangle.png","Stranger","Match ","Match ",818.219999999972,1
9939934,"Self-Circle Task",9,101,"btriangle.png","You","Mismatch ","Mismatch ",1385.96000000002,1
9939934,"Self-Circle Task",9,102,"circle.png","Stranger","Mismatch ","Mismatch ",909.580000000016,1
9939934,"Self-Circle Task",9,103,"square.png","Stranger","Mismatch ","Mismatch ",890.080000000016,1
9939934,"Self-Circle Task",9,104,"square.png","You","Mismatch ","Mismatch ",915.500000000058,1
9939934,"Self-Circle Task",9,105,"circle.png","Friend","Mismatch ","Mismatch ",1169.71999999997,1
9939934,"Self-Circle Task",9,106,"btriangle.png","Friend","Mismatch ","Mismatch ",729.799999999988,1
9939934,"Self-Circle Task",9,107,"square.png","Friend","Match ","Match ",587.559999999998,1
9939934,"Self-Circle Task",9,108,"square.png","Friend","Match ","Match ",1202.28000000003,1
9939934,"Self-Circle Task",10,109,"square.png","Friend","Match ","Match ",723.099999999977,1
9939934,"Self-Circle Task",10,110,"btriangle.png","Friend","Mismatch ","Mismatch ",612.719999999972,1
9939934,"Self-Circle Task",10,111,"circle.png","Stranger","Mismatch ","Mismatch ",756.799999999988,1
9939934,"Self-Circle Task",10,112,"btriangle.png","You","Mismatch ","Mismatch ",806.140000000014,1
9939934,"Self-Circle Task",10,113,"circle.png","Friend","Mismatch ","Match ",989.559999999998,0
9939934,"Self-Circle Task",10,114,"square.png","Friend","Match ","Match ",661.840000000026,1
9939934,"Self-Circle Task",10,115,"square.png","Stranger","Mismatch ","Mismatch ",679.020000000019,1
9939934,"Self-Circle Task",10,116,"circle.png","You","Match ","Match ",647.640000000014,1
9939934,"Self-Circle Task",10,117,"circle.png","You","Match ","Match ",767.479999999981,1
9939934,"Self-Circle Task",10,118,"btriangle.png","Stranger","Match ","Match ",935.099999999977,1
9939934,"Self-Circle Task",10,119,"square.png","You","Mismatch ","Mismatch ",1034.35999999999,1
9939934,"Self-Circle Task",10,120,"btriangle.png","Stranger","Match ","Match ",910.640000000014,1
9941386,"Self-Circle Task",1,1,"circle.png","Stranger","Mismatch ","Match ",864.770999904635,0
9941386,"Self-Circle Task",1,2,"square.png","You","Mismatch ","Mismatch ",1050.36999980926,1
9941386,"Self-Circle Task",1,3,"square.png","Friend","Match ","Match ",1337.538,1
9941386,"Self-Circle Task",1,4,"btriangle.png","Friend","Mismatch ","Mismatch ",856.118000000002,1
9941386,"Self-Circle Task",1,5,"circle.png","You","Match ","Mismatch ",1169.04300000001,0
9941386,"Self-Circle Task",1,6,"btriangle.png","You","Mismatch ","Mismatch ",1035.7179997139,1
9941386,"Self-Circle Task",1,7,"circle.png","Friend","Mismatch ","Match ",1035.413,0
9941386,"Self-Circle Task",1,8,"circle.png","You","Match ","Match ",1107.24799980926,1
9941386,"Self-Circle Task",1,9,"btriangle.png","Stranger","Match ","Match ",811.153999713904,1
9941386,"Self-Circle Task",1,10,"square.png","Stranger","Mismatch ","Mismatch ",886.940999713901,1
9941386,"Self-Circle Task",1,11,"square.png","Friend","Match ","Match ",895.106,1
9941386,"Self-Circle Task",1,12,"btriangle.png","Stranger","Match ","Match ",904.356,1
9941386,"Self-Circle Task",2,13,"btriangle.png","Stranger","Match ","Match ",1191.22699980927,1
9941386,"Self-Circle Task",2,14,"btriangle.png","You","Mismatch ","Mismatch ",851.479999904637,1
9941386,"Self-Circle Task",2,15,"circle.png","You","Match ","Match ",732.947999713899,1
9941386,"Self-Circle Task",2,16,"square.png","Stranger","Mismatch ","Mismatch ",1071.398,1
9941386,"Self-Circle Task",2,17,"circle.png","You","Match ","Match ",806.941999999995,1
9941386,"Self-Circle Task",2,18,"square.png","Friend","Match ","Mismatch ",946.029999904626,0
9941386,"Self-Circle Task",2,19,"btriangle.png","Friend","Mismatch ","Mismatch ",798.463999904634,1
9941386,"Self-Circle Task",2,20,"square.png","Friend","Match ","Mismatch ",682.74799980926,0
9941386,"Self-Circle Task",2,21,"circle.png","Friend","Mismatch ","Mismatch ",842.674999809271,1
9941386,"Self-Circle Task",2,22,"square.png","You","Mismatch ","Mismatch ",639.914000000004,1
9941386,"Self-Circle Task",2,23,"btriangle.png","Stranger","Match ","Match ",660.61799980927,1
9941386,"Self-Circle Task",2,24,"circle.png","Stranger","Mismatch ","Mismatch ",779.134999809263,1
9941386,"Self-Circle Task",3,25,"square.png","Friend","Match ","Match ",646.862999713892,1
9941386,"Self-Circle Task",3,26,"btriangle.png","Friend","Mismatch ","Mismatch ",677.716999713899,1
9941386,"Self-Circle Task",3,27,"circle.png","You","Match ","Match ",769.056999904627,1
9941386,"Self-Circle Task",3,28,"circle.png","Stranger","Mismatch ","Match ",415.285999999993,0
9941386,"Self-Circle Task",3,29,"square.png","You","Mismatch ","Mismatch ",675.042999904632,1
9941386,"Self-Circle Task",3,30,"btriangle.png","Stranger","Match ","Match ",1003.41999990464,1
9941386,"Self-Circle Task",3,31,"circle.png","You","Match ","Match ",678.726999809267,1
9941386,"Self-Circle Task",3,32,"btriangle.png","You","Mismatch ","Mismatch ",544.385999999999,1
9941386,"Self-Circle Task",3,33,"square.png","Stranger","Mismatch ","Mismatch ",520.912999904627,1
9941386,"Self-Circle Task",3,34,"circle.png","Friend","Mismatch ","Mismatch ",640.03200009538,1
9941386,"Self-Circle Task",3,35,"btriangle.png","Stranger","Match ","Match ",727.174999999988,1
9941386,"Self-Circle Task",3,36,"square.png","Friend","Match ","Match ",781.901999713911,1
9941386,"Self-Circle Task",4,37,"circle.png","You","Match ","Mismatch ",443.848999904643,0
9941386,"Self-Circle Task",4,38,"square.png","Stranger","Mismatch ","Mismatch ",885.394000095373,1
9941386,"Self-Circle Task",4,39,"square.png","You","Mismatch ","Mismatch ",695.902999809274,1
9941386,"Self-Circle Task",4,40,"circle.png","Stranger","Mismatch ","Mismatch ",592.828000000009,1
9941386,"Self-Circle Task",4,41,"btriangle.png","Stranger","Match ","Match ",695.31700000001,1
9941386,"Self-Circle Task",4,42,"circle.png","You","Match ","Match ",630.620999809267,1
9941386,"Self-Circle Task",4,43,"circle.png","Friend","Mismatch ","Mismatch ",612.032000000007,1
9941386,"Self-Circle Task",4,44,"square.png","Friend","Match ","Match ",625.660999809275,1
9941386,"Self-Circle Task",4,45,"btriangle.png","Stranger","Match ","Match ",752.991000095353,1
9941386,"Self-Circle Task",4,46,"btriangle.png","Friend","Mismatch ","Mismatch ",683.0089997139,1
9941386,"Self-Circle Task",4,47,"square.png","Friend","Match ","Match ",696.232999904634,1
9941386,"Self-Circle Task",4,48,"btriangle.png","You","Mismatch ","Mismatch ",543.30399990463,1
9941386,"Self-Circle Task",5,49,"circle.png","You","Match ","Match ",574.986000000004,1
9941386,"Self-Circle Task",5,50,"square.png","You","Mismatch ","Mismatch ",896.182000000001,1
9941386,"Self-Circle Task",5,51,"btriangle.png","Stranger","Match ","Mismatch ",1000.52299999999,0
9941386,"Self-Circle Task",5,52,"circle.png","Friend","Mismatch ","Mismatch ",935.613000000012,1
9941386,"Self-Circle Task",5,53,"circle.png","You","Match ","Match ",583.217000000004,1
9941386,"Self-Circle Task",5,54,"square.png","Stranger","Mismatch ","Mismatch ",856.343999904639,1
9941386,"Self-Circle Task",5,55,"square.png","Friend","Match ","Match ",620.489999999991,1
9941386,"Self-Circle Task",5,56,"square.png","Friend","Match ","Match ",359.97099999999,1
9941386,"Self-Circle Task",5,57,"circle.png","Stranger","Mismatch ","Mismatch ",557.657999809278,1
9941386,"Self-Circle Task",5,58,"btriangle.png","You","Mismatch ","Mismatch ",659.93899990464,1
9941386,"Self-Circle Task",5,59,"btriangle.png","Stranger","Match ","Match ",785.265000095358,1
9941386,"Self-Circle Task",5,60,"btriangle.png","Friend","Mismatch ","Mismatch ",852.131999904639,1
9941386,"Self-Circle Task",6,61,"btriangle.png","Friend","Mismatch ","Mismatch ",797.170999904629,1
9941386,"Self-Circle Task",6,62,"square.png","Stranger","Mismatch ","Mismatch ",936.930999809265,1
9941386,"Self-Circle Task",6,63,"btriangle.png","You","Mismatch ","Match ",900.483999999997,0
9941386,"Self-Circle Task",6,64,"circle.png","Friend","Mismatch ","Mismatch ",715.823000095377,1
9941386,"Self-Circle Task",6,65,"btriangle.png","Stranger","Match ","Match ",943.749000000011,1
9941386,"Self-Circle Task",6,66,"circle.png","Stranger","Mismatch ","Mismatch ",709.30099980926,1
9941386,"Self-Circle Task",6,67,"square.png","Friend","Match ","Match ",725.03200009538,1
9941386,"Self-Circle Task",6,68,"circle.png","You","Match ","Match ",804.756999809266,1
9941386,"Self-Circle Task",6,69,"square.png","Friend","Match ","Mismatch ",448.690999713901,0
9941386,"Self-Circle Task",6,70,"btriangle.png","Stranger","Match ","Mismatch ",577.119999809278,0
9941386,"Self-Circle Task",6,71,"square.png","You","Mismatch ","Match ",637.69200000001,0
9941386,"Self-Circle Task",6,72,"circle.png","You","Match ","Match ",568.189000095357,1
9941386,"Self-Circle Task",7,73,"btriangle.png","Friend","Mismatch ","Match ",598.462999904645,0
9941386,"Self-Circle Task",7,74,"btriangle.png","You","Mismatch ","Match ",401.616999904625,0
9941386,"Self-Circle Task",7,75,"circle.png","You","Match ","Match ",399.763000000035,1
9941386,"Self-Circle Task",7,76,"btriangle.png","Stranger","Match ","Match ",644.784999809286,1
9941386,"Self-Circle Task",7,77,"square.png","Friend","Match ","Match ",592.382000095386,1
9941386,"Self-Circle Task",7,78,"circle.png","Stranger","Mismatch ","Mismatch ",775.808999809262,1
9941386,"Self-Circle Task",7,79,"square.png","You","Mismatch ","Mismatch ",658.407000000007,1
9941386,"Self-Circle Task",7,80,"circle.png","Friend","Mismatch ","Mismatch ",568.664999999979,1
9941386,"Self-Circle Task",7,81,"circle.png","You","Match ","Mismatch ",669.122000095376,0
9941386,"Self-Circle Task",7,82,"btriangle.png","Stranger","Match ","Mismatch ",791.065999904647,0
9941386,"Self-Circle Task",7,83,"square.png","Stranger","Mismatch ","Mismatch ",527.702000095393,1
9941386,"Self-Circle Task",7,84,"square.png","Friend","Match ","Match ",799.19599980925,1
9941386,"Self-Circle Task",8,85,"circle.png","Stranger","Mismatch ","Mismatch ",760.196999904641,1
9941386,"Self-Circle Task",8,86,"btriangle.png","You","Mismatch ","Mismatch ",798.798999904655,1
9941386,"Self-Circle Task",8,87,"square.png","You","Mismatch ","Mismatch ",721.656999713916,1
9941386,"Self-Circle Task",8,88,"btriangle.png","Stranger","Match ","Match ",896.620999713894,1
9941386,"Self-Circle Task",8,89,"square.png","Friend","Match ","Match ",622.104999809293,1
9941386,"Self-Circle Task",8,90,"circle.png","You","Match ","Match ",605.875999999989,1
9941386,"Self-Circle Task",8,91,"btriangle.png","Friend","Mismatch ","Match ",665.524999904621,0
9941386,"Self-Circle Task",8,92,"square.png","Stranger","Mismatch ","Mismatch ",885.971000095364,1
9941386,"Self-Circle Task",8,93,"circle.png","Friend","Mismatch ","Mismatch ",695.395000095363,1
9941386,"Self-Circle Task",8,94,"square.png","Friend","Match ","Match ",514.883999809274,1
9941386,"Self-Circle Task",8,95,"btriangle.png","Stranger","Match ","Match ",676.760000095353,1
9941386,"Self-Circle Task",8,96,"circle.png","You","Match ","Match ",1047.70399990462,1
9941386,"Self-Circle Task",9,97,"btriangle.png","Stranger","Match ","Match ",768.92300000001,1
9941386,"Self-Circle Task",9,98,"square.png","Friend","Match ","Match ",647.563999904611,1
9941386,"Self-Circle Task",9,99,"circle.png","Friend","Mismatch ","Match ",835.674999904644,0
9941386,"Self-Circle Task",9,100,"btriangle.png","Friend","Mismatch ","Mismatch ",722.446999713895,1
9941386,"Self-Circle Task",9,101,"square.png","Friend","Match ","Match ",713.788,1
9941386,"Self-Circle Task",9,102,"square.png","You","Mismatch ","Mismatch ",714.627000095381,1
9941386,"Self-Circle Task",9,103,"circle.png","You","Match ","Mismatch ",631.524999904621,0
9941386,"Self-Circle Task",9,104,"circle.png","Stranger","Mismatch ","Mismatch ",683.53899999999,1
9941386,"Self-Circle Task",9,105,"btriangle.png","Stranger","Match ","Match ",881.387999904633,1
9941386,"Self-Circle Task",9,106,"square.png","Stranger","Mismatch ","Mismatch ",865.677000000025,1
9941386,"Self-Circle Task",9,107,"circle.png","You","Match ","Match ",698.077000095393,1
9941386,"Self-Circle Task",9,108,"btriangle.png","You","Mismatch ","Mismatch ",444.558000095363,1
9941386,"Self-Circle Task",10,109,"square.png","You","Mismatch ","Mismatch ",650.317000000039,1
9941386,"Self-Circle Task",10,110,"square.png","Friend","Match ","Match ",677.851999904611,1
9941386,"Self-Circle Task",10,111,"btriangle.png","Stranger","Match ","Mismatch ",710.698000095377,0
9941386,"Self-Circle Task",10,112,"circle.png","You","Match ","Match ",592.951000095345,1
9941386,"Self-Circle Task",10,113,"circle.png","You","Match ","Match ",428.506999713893,1
9941386,"Self-Circle Task",10,114,"btriangle.png","You","Mismatch ","Mismatch ",562.38700009539,1
9941386,"Self-Circle Task",10,115,"circle.png","Stranger","Mismatch ","Mismatch ",761.114000095346,1
9941386,"Self-Circle Task",10,116,"square.png","Friend","Match ","Match ",584.836999713909,1
9941386,"Self-Circle Task",10,117,"btriangle.png","Friend","Mismatch ","Mismatch ",609.90699980926,1
9941386,"Self-Circle Task",10,118,"circle.png","Friend","Mismatch ","Match ",702.430999999982,0
9941386,"Self-Circle Task",10,119,"square.png","Stranger","Mismatch ","Mismatch ",1087.61599971389,1
9941386,"Self-Circle Task",10,120,"btriangle.png","Stranger","Match ","Mismatch ",560.222999809252,0
9942076,"Self-Circle Task",1,1,"square.png","Stranger","Mismatch ","Mismatch ",1008.37200001191,1
9942076,"Self-Circle Task",1,2,"square.png","You","Mismatch ","Mismatch ",701.369000017876,1
9942076,"Self-Circle Task",1,3,"square.png","Friend","Match ","Match ",584.633000005968,1
9942076,"Self-Circle Task",1,4,"circle.png","You","Match ","Match ",503.831000000006,1
9942076,"Self-Circle Task",1,5,"square.png","Friend","Match ","Match ",850.458999999973,1
9942076,"Self-Circle Task",1,6,"btriangle.png","Stranger","Match ","Match ",1000.74500001193,1
9942076,"Self-Circle Task",1,7,"btriangle.png","You","Mismatch ","Mismatch ",767.058999999979,1
9942076,"Self-Circle Task",1,8,"circle.png","Stranger","Mismatch ","Mismatch ",767.900999994046,1
9942076,"Self-Circle Task",1,9,"circle.png","Friend","Mismatch ","Mismatch ",929.160999994026,1
9942076,"Self-Circle Task",1,10,"btriangle.png","Friend","Mismatch ","Mismatch ",754.712000011932,1
9942076,"Self-Circle Task",1,11,"btriangle.png","Stranger","Match ","Match ",947.315999994025,1
9942076,"Self-Circle Task",1,12,"circle.png","You","Match ","Match ",1020.31400000595,1
9942076,"Self-Circle Task",2,13,"square.png","Friend","Match ","Match ",562.380999994028,1
9942076,"Self-Circle Task",2,14,"btriangle.png","Stranger","Match ","Match ",891.14499999999,1
9942076,"Self-Circle Task",2,15,"circle.png","You","Match ","Match ",726.683999994042,1
9942076,"Self-Circle Task",2,16,"btriangle.png","Friend","Mismatch ","Match ",664.278000005957,0
9942076,"Self-Circle Task",2,17,"square.png","Stranger","Mismatch ","Mismatch ",653.56099999405,1
9942076,"Self-Circle Task",2,18,"btriangle.png","Stranger","Match ","Match ",818.374999994034,1
9942076,"Self-Circle Task",2,19,"circle.png","You","Match ","Match ",687.996000011917,1
9942076,"Self-Circle Task",2,20,"circle.png","Friend","Mismatch ","Mismatch ",771.767999994045,1
9942076,"Self-Circle Task",2,21,"circle.png","Stranger","Mismatch ","Match ",900.468000011926,0
9942076,"Self-Circle Task",2,22,"square.png","Friend","Match ","",1506.52100001788,0
9942076,"Self-Circle Task",2,23,"square.png","You","Mismatch ","Mismatch ",852.674000017869,1
9942076,"Self-Circle Task",2,24,"btriangle.png","You","Mismatch ","",1501.84400001192,0
9942076,"Self-Circle Task",3,25,"square.png","You","Mismatch ","Mismatch ",944.497999999992,1
9942076,"Self-Circle Task",3,26,"btriangle.png","Stranger","Match ","Match ",1097.58300000001,1
9942076,"Self-Circle Task",3,27,"circle.png","Friend","Mismatch ","Mismatch ",1060.26599999404,1
9942076,"Self-Circle Task",3,28,"btriangle.png","Stranger","Match ","",1502.24900001191,0
9942076,"Self-Circle Task",3,29,"square.png","Friend","Match ","Match ",902.88100000596,1
9942076,"Self-Circle Task",3,30,"btriangle.png","You","Mismatch ","Mismatch ",850.196000017895,1
9942076,"Self-Circle Task",3,31,"circle.png","You","Match ","Match ",478.734000011929,1
9942076,"Self-Circle Task",3,32,"square.png","Stranger","Mismatch ","Match ",651.923999994033,0
9942076,"Self-Circle Task",3,33,"circle.png","You","Match ","Match ",568.544000017893,1
9942076,"Self-Circle Task",3,34,"square.png","Friend","Match ","Mismatch ",560.335000011924,0
9942076,"Self-Circle Task",3,35,"btriangle.png","Friend","Mismatch ","Mismatch ",969.293000011909,1
9942076,"Self-Circle Task",3,36,"circle.png","Stranger","Mismatch ","Mismatch ",769.479000017891,1
9942076,"Self-Circle Task",4,37,"circle.png","Stranger","Mismatch ","Mismatch ",945.142999994045,1
9942076,"Self-Circle Task",4,38,"circle.png","You","Match ","Match ",874.578999994032,1
9942076,"Self-Circle Task",4,39,"square.png","You","Mismatch ","Mismatch ",877.844000000012,1
9942076,"Self-Circle Task",4,40,"btriangle.png","You","Mismatch ","Match ",898.383999994054,0
9942076,"Self-Circle Task",4,41,"circle.png","Friend","Mismatch ","",1502.01199999999,0
9942076,"Self-Circle Task",4,42,"btriangle.png","Friend","Mismatch ","Match ",475.430000005959,0
9942076,"Self-Circle Task",4,43,"circle.png","You","Match ","Match ",951.530999994051,1
9942076,"Self-Circle Task",4,44,"square.png","Friend","Match ","Match ",1161.49100001191,1
9942076,"Self-Circle Task",4,45,"btriangle.png","Stranger","Match ","Match ",833.559000000008,1
9942076,"Self-Circle Task",4,46,"btriangle.png","Stranger","Match ","Match ",734.171000000031,1
9942076,"Self-Circle Task",4,47,"square.png","Friend","Match ","Match ",696.919000011927,1
9942076,"Self-Circle Task",4,48,"square.png","Stranger","Mismatch ","Mismatch ",677.144999994023,1
9942076,"Self-Circle Task",5,49,"circle.png","Stranger","Mismatch ","Mismatch ",831.617000017897,1
9942076,"Self-Circle Task",5,50,"btriangle.png","Stranger","Match ","Mismatch ",566.415000017907,0
9942076,"Self-Circle Task",5,51,"circle.png","You","Match ","Match ",695.097999994061,1
9942076,"Self-Circle Task",5,52,"btriangle.png","Stranger","Match ","Match ",762.565000017872,1
9942076,"Self-Circle Task",5,53,"square.png","You","Mismatch ","Mismatch ",748.087,1
9942076,"Self-Circle Task",5,54,"circle.png","Friend","Mismatch ","Match ",484.263000000035,0
9942076,"Self-Circle Task",5,55,"btriangle.png","Friend","Mismatch ","Mismatch ",872.582000017865,1
9942076,"Self-Circle Task",5,56,"btriangle.png","You","Mismatch ","Match ",653.421000017901,0
9942076,"Self-Circle Task",5,57,"square.png","Stranger","Mismatch ","Mismatch ",809.695999994059,1
9942076,"Self-Circle Task",5,58,"circle.png","You","Match ","Match ",776.915000011912,1
9942076,"Self-Circle Task",5,59,"square.png","Friend","Match ","Match ",984.670000000042,1
9942076,"Self-Circle Task",5,60,"square.png","Friend","Match ","Mismatch ",640.087,0
9942076,"Self-Circle Task",6,61,"circle.png","You","Match ","Match ",684.294000000053,1
9942076,"Self-Circle Task",6,62,"square.png","Stranger","Mismatch ","Mismatch ",720.477000017883,1
9942076,"Self-Circle Task",6,63,"square.png","Friend","Match ","Match ",627.045000011916,1
9942076,"Self-Circle Task",6,64,"square.png","You","Mismatch ","Mismatch ",697.509999994014,1
9942076,"Self-Circle Task",6,65,"btriangle.png","Stranger","Match ","Match ",700.515000000014,1
9942076,"Self-Circle Task",6,66,"circle.png","Stranger","Mismatch ","Mismatch ",656.542000011948,1
9942076,"Self-Circle Task",6,67,"square.png","Friend","Match ","Match ",581.562999994028,1
9942076,"Self-Circle Task",6,68,"circle.png","You","Match ","Match ",645.484999994049,1
9942076,"Self-Circle Task",6,69,"btriangle.png","Friend","Mismatch ","Match ",578.949000011897,0
9942076,"Self-Circle Task",6,70,"circle.png","Friend","Mismatch ","Mismatch ",1386.43399999401,1
9942076,"Self-Circle Task",6,71,"btriangle.png","Stranger","Match ","Match ",961.720999994024,1
9942076,"Self-Circle Task",6,72,"btriangle.png","You","Mismatch ","Match ",858.59600000002,0
9942076,"Self-Circle Task",7,73,"btriangle.png","Stranger","Match ","Match ",846.876000017859,1
9942076,"Self-Circle Task",7,74,"square.png","You","Mismatch ","Mismatch ",634.233999999997,1
9942076,"Self-Circle Task",7,75,"circle.png","You","Match ","Match ",634.407999999938,1
9942076,"Self-Circle Task",7,76,"square.png","Friend","Match ","Match ",544.065000011935,1
9942076,"Self-Circle Task",7,77,"btriangle.png","You","Mismatch ","Mismatch ",793.569000017887,1
9942076,"Self-Circle Task",7,78,"square.png","Stranger","Mismatch ","Mismatch ",745.473000011931,1
9942076,"Self-Circle Task",7,79,"btriangle.png","Stranger","Match ","Match ",554.486000005971,1
9942076,"Self-Circle Task",7,80,"circle.png","You","Match ","Match ",627.407000011939,1
9942076,"Self-Circle Task",7,81,"btriangle.png","Friend","Mismatch ","Mismatch ",609.023999999976,1
9942076,"Self-Circle Task",7,82,"square.png","Friend","Match ","Match ",647.702999994042,1
9942076,"Self-Circle Task",7,83,"circle.png","Stranger","Mismatch ","Mismatch ",750.247000011906,1
9942076,"Self-Circle Task",7,84,"circle.png","Friend","Mismatch ","Mismatch ",727.293000000005,1
9942076,"Self-Circle Task",8,85,"square.png","You","Mismatch ","Mismatch ",649.427999994019,1
9942076,"Self-Circle Task",8,86,"btriangle.png","You","Mismatch ","Mismatch ",702.372999994026,1
9942076,"Self-Circle Task",8,87,"circle.png","You","Match ","Match ",721.616000005975,1
9942076,"Self-Circle Task",8,88,"square.png","Stranger","Mismatch ","Mismatch ",731.221999994013,1
9942076,"Self-Circle Task",8,89,"btriangle.png","Stranger","Match ","Match ",661.178000000014,1
9942076,"Self-Circle Task",8,90,"circle.png","Stranger","Mismatch ","Mismatch ",594.700000017881,1
9942076,"Self-Circle Task",8,91,"square.png","Friend","Match ","Match ",833.987000000023,1
9942076,"Self-Circle Task",8,92,"circle.png","You","Match ","Match ",663.899000005971,1
9942076,"Self-Circle Task",8,93,"btriangle.png","Friend","Mismatch ","Mismatch ",996.508999994025,1
9942076,"Self-Circle Task",8,94,"square.png","Friend","Match ","Match ",667.866000011913,1
9942076,"Self-Circle Task",8,95,"btriangle.png","Stranger","Match ","Mismatch ",823.940000011935,0
9942076,"Self-Circle Task",8,96,"circle.png","Friend","Mismatch ","Mismatch ",757.604999999981,1
9942076,"Self-Circle Task",9,97,"circle.png","You","Match ","Match ",685.982000011893,1
9942076,"Self-Circle Task",9,98,"square.png","Friend","Match ","Match ",721.375000011933,1
9942076,"Self-Circle Task",9,99,"btriangle.png","Stranger","Match ","Match ",676.320999999996,1
9942076,"Self-Circle Task",9,100,"circle.png","You","Match ","Match ",712.173000011942,1
9942076,"Self-Circle Task",9,101,"square.png","You","Mismatch ","Mismatch ",642.303000000014,1
9942076,"Self-Circle Task",9,102,"square.png","Friend","Match ","Match ",792.26200001192,1
9942076,"Self-Circle Task",9,103,"square.png","Stranger","Mismatch ","Mismatch ",663.327000005986,1
9942076,"Self-Circle Task",9,104,"btriangle.png","Stranger","Match ","Match ",700.210000000021,1
9942076,"Self-Circle Task",9,105,"circle.png","Friend","Mismatch ","Match ",655.833000017854,0
9942076,"Self-Circle Task",9,106,"btriangle.png","Friend","Mismatch ","Match ",956.635000005946,0
9942076,"Self-Circle Task",9,107,"circle.png","Stranger","Mismatch ","Mismatch ",901.939000017883,1
9942076,"Self-Circle Task",9,108,"btriangle.png","You","Mismatch ","",1503.34600000002,0
9942076,"Self-Circle Task",10,109,"circle.png","You","Match ","Match ",638.057000011904,1
9942076,"Self-Circle Task",10,110,"circle.png","Friend","Mismatch ","Mismatch ",955.288,1
9942076,"Self-Circle Task",10,111,"btriangle.png","Stranger","Match ","Match ",796.443000000028,1
9942076,"Self-Circle Task",10,112,"square.png","You","Mismatch ","Mismatch ",771.153000005987,1
9942076,"Self-Circle Task",10,113,"square.png","Friend","Match ","Match ",818.526000011945,1
9942076,"Self-Circle Task",10,114,"btriangle.png","Friend","Mismatch ","Mismatch ",838.860000011919,1
9942076,"Self-Circle Task",10,115,"square.png","Stranger","Mismatch ","Mismatch ",758.859000005934,1
9942076,"Self-Circle Task",10,116,"circle.png","You","Match ","Match ",671.042000000016,1
9942076,"Self-Circle Task",10,117,"square.png","Friend","Match ","Match ",706.947000017855,1
9942076,"Self-Circle Task",10,118,"circle.png","Stranger","Mismatch ","Mismatch ",630.649000011908,1
9942076,"Self-Circle Task",10,119,"btriangle.png","Stranger","Match ","Match ",612.250999994052,1
9942076,"Self-Circle Task",10,120,"btriangle.png","You","Mismatch ","Mismatch ",883.196000011929,1
9945615,"Self-Circle Task",1,1,"btriangle.png","Stranger","Match ","Mismatch ",649.399999904635,0
9945615,"Self-Circle Task",1,2,"circle.png","Friend","Mismatch ","Mismatch ",931,1
9945615,"Self-Circle Task",1,3,"btriangle.png","Friend","Mismatch ","Mismatch ",514.999999952313,1
9945615,"Self-Circle Task",1,4,"square.png","You","Mismatch ","Match ",636.599999809259,0
9945615,"Self-Circle Task",1,5,"btriangle.png","Stranger","Match ","Mismatch ",831.499999952313,0
9945615,"Self-Circle Task",1,6,"circle.png","Stranger","Mismatch ","Mismatch ",987.799999952316,1
9945615,"Self-Circle Task",1,7,"btriangle.png","You","Mismatch ","Mismatch ",1088.39999999999,1
9945615,"Self-Circle Task",1,8,"circle.png","You","Match ","Match ",1149.29999995232,1
9945615,"Self-Circle Task",1,9,"circle.png","You","Match ","Match ",505.899999856949,1
9945615,"Self-Circle Task",1,10,"square.png","Friend","Match ","Match ",1436.80000000002,1
9945615,"Self-Circle Task",1,11,"square.png","Stranger","Mismatch ","Mismatch ",733.399999856949,1
9945615,"Self-Circle Task",1,12,"square.png","Friend","Match ","Match ",701.5,1
9945615,"Self-Circle Task",2,13,"square.png","Friend","Match ","Match ",529.600000000006,1
9945615,"Self-Circle Task",2,14,"square.png","You","Mismatch ","Mismatch ",902.400000000023,1
9945615,"Self-Circle Task",2,15,"circle.png","Stranger","Mismatch ","Mismatch ",846.700000000012,1
9945615,"Self-Circle Task",2,16,"btriangle.png","Stranger","Match ","Match ",839.5,1
9945615,"Self-Circle Task",2,17,"circle.png","Friend","Mismatch ","Match ",1384.0999999523,0
9945615,"Self-Circle Task",2,18,"circle.png","You","Match ","Match ",739.199999904638,1
9945615,"Self-Circle Task",2,19,"circle.png","You","Match ","Match ",542.599999809259,1
9945615,"Self-Circle Task",2,20,"square.png","Friend","Match ","Match ",1069.09999980926,1
9945615,"Self-Circle Task",2,21,"square.png","Stranger","Mismatch ","Mismatch ",911.799999952316,1
9945615,"Self-Circle Task",2,22,"btriangle.png","You","Mismatch ","Mismatch ",1132.40000000002,1
9945615,"Self-Circle Task",2,23,"btriangle.png","Friend","Mismatch ","Mismatch ",1229.29999999999,1
9945615,"Self-Circle Task",2,24,"btriangle.png","Stranger","Match ","Match ",958.199999856937,1
9945615,"Self-Circle Task",3,25,"square.png","You","Mismatch ","Match ",661.799999904644,0
9945615,"Self-Circle Task",3,26,"square.png","Friend","Match ","Match ",1402.30000000002,1
9945615,"Self-Circle Task",3,27,"btriangle.png","Stranger","Match ","Mismatch ",1139.39999990462,0
9945615,"Self-Circle Task",3,28,"btriangle.png","Friend","Mismatch ","Mismatch ",1006.49999990463,1
9945615,"Self-Circle Task",3,29,"btriangle.png","Stranger","Match ","Match ",1031.19999980927,1
9945615,"Self-Circle Task",3,30,"circle.png","Friend","Mismatch ","Match ",1235.79999999999,0
9945615,"Self-Circle Task",3,31,"circle.png","You","Match ","Mismatch ",1111.39999999999,0
9945615,"Self-Circle Task",3,32,"circle.png","Stranger","Mismatch ","Mismatch ",1146.59999980926,1
9945615,"Self-Circle Task",3,33,"square.png","Friend","Match ","Match ",835.099999952305,1
9945615,"Self-Circle Task",3,34,"square.png","Stranger","Mismatch ","Mismatch ",1150.19999995231,1
9945615,"Self-Circle Task",3,35,"circle.png","You","Match ","Match ",766.899999809277,1
9945615,"Self-Circle Task",3,36,"btriangle.png","You","Mismatch ","Mismatch ",1132.19999990464,1
9945615,"Self-Circle Task",4,37,"circle.png","You","Match ","Match ",771.100000000035,1
9945615,"Self-Circle Task",4,38,"btriangle.png","Friend","Mismatch ","Mismatch ",1063.49999980925,1
9945615,"Self-Circle Task",4,39,"btriangle.png","Stranger","Match ","Match ",1066.89999995232,1
9945615,"Self-Circle Task",4,40,"circle.png","You","Match ","Match ",690.799999904644,1
9945615,"Self-Circle Task",4,41,"square.png","You","Mismatch ","Mismatch ",1151.60000000001,1
9945615,"Self-Circle Task",4,42,"circle.png","Stranger","Mismatch ","Mismatch ",1004.89999995232,1
9945615,"Self-Circle Task",4,43,"circle.png","Friend","Mismatch ","Mismatch ",1027,1
9945615,"Self-Circle Task",4,44,"square.png","Stranger","Mismatch ","Mismatch ",822.399999904621,1
9945615,"Self-Circle Task",4,45,"btriangle.png","Stranger","Match ","Mismatch ",722.300000000017,0
9945615,"Self-Circle Task",4,46,"square.png","Friend","Match ","Match ",882.399999856949,1
9945615,"Self-Circle Task",4,47,"btriangle.png","You","Mismatch ","Mismatch ",583.899999999994,1
9945615,"Self-Circle Task",4,48,"square.png","Friend","Match ","Match ",650.799999999988,1
9945615,"Self-Circle Task",5,49,"circle.png","Stranger","Mismatch ","Mismatch ",908.899999999994,1
9945615,"Self-Circle Task",5,50,"square.png","Friend","Match ","Match ",645.399999856949,1
9945615,"Self-Circle Task",5,51,"square.png","You","Mismatch ","Mismatch ",899.199999809265,1
9945615,"Self-Circle Task",5,52,"btriangle.png","Stranger","Match ","Mismatch ",807.699999904638,0
9945615,"Self-Circle Task",5,53,"circle.png","You","Match ","Match ",693.600000000006,1
9945615,"Self-Circle Task",5,54,"circle.png","Friend","Mismatch ","Mismatch ",670.199999856937,1
9945615,"Self-Circle Task",5,55,"circle.png","You","Match ","Match ",728.999999856926,1
9945615,"Self-Circle Task",5,56,"btriangle.png","You","Mismatch ","Mismatch ",1133.49999980925,1
9945615,"Self-Circle Task",5,57,"square.png","Friend","Match ","Match ",713.400000000023,1
9945615,"Self-Circle Task",5,58,"btriangle.png","Friend","Mismatch ","Mismatch ",771.900000000023,1
9945615,"Self-Circle Task",5,59,"btriangle.png","Stranger","Match ","Match ",1075.39999980928,1
9945615,"Self-Circle Task",5,60,"square.png","Stranger","Mismatch ","Mismatch ",762.499999809253,1
9945615,"Self-Circle Task",6,61,"btriangle.png","You","Mismatch ","Mismatch ",798.69999995234,1
9945615,"Self-Circle Task",6,62,"circle.png","Friend","Mismatch ","Mismatch ",956.19999995234,1
9945615,"Self-Circle Task",6,63,"square.png","You","Mismatch ","Mismatch ",762.699999999953,1
9945615,"Self-Circle Task",6,64,"btriangle.png","Stranger","Match ","Match ",854.400000000023,1
9945615,"Self-Circle Task",6,65,"circle.png","You","Match ","Match ",705.499999952328,1
9945615,"Self-Circle Task",6,66,"circle.png","Stranger","Mismatch ","Mismatch ",749.799999999988,1
9945615,"Self-Circle Task",6,67,"circle.png","You","Match ","Match ",1021.70000000001,1
9945615,"Self-Circle Task",6,68,"btriangle.png","Friend","Mismatch ","Match ",806.899999809277,0
9945615,"Self-Circle Task",6,69,"square.png","Stranger","Mismatch ","Mismatch ",787.799999809242,1
9945615,"Self-Circle Task",6,70,"square.png","Friend","Match ","Match ",999.599999999977,1
9945615,"Self-Circle Task",6,71,"btriangle.png","Stranger","Match ","Mismatch ",592.699999904609,0
9945615,"Self-Circle Task",6,72,"square.png","Friend","Match ","Match ",552.999999952328,1
9945615,"Self-Circle Task",7,73,"square.png","Stranger","Mismatch ","Mismatch ",880.299999952316,1
9945615,"Self-Circle Task",7,74,"square.png","You","Mismatch ","Match ",569.900000000081,0
9945615,"Self-Circle Task",7,75,"btriangle.png","You","Mismatch ","Mismatch ",663.900000000023,1
9945615,"Self-Circle Task",7,76,"btriangle.png","Stranger","Match ","Match ",1035.5999999523,1
9945615,"Self-Circle Task",7,77,"circle.png","Stranger","Mismatch ","Mismatch ",1222.40000000002,1
9945615,"Self-Circle Task",7,78,"square.png","Friend","Match ","Match ",792.5,1
9945615,"Self-Circle Task",7,79,"btriangle.png","Stranger","Match ","Mismatch ",736.399999999965,0
9945615,"Self-Circle Task",7,80,"circle.png","You","Match ","Match ",603.5,1
9945615,"Self-Circle Task",7,81,"square.png","Friend","Match ","Match ",653.300000000047,1
9945615,"Self-Circle Task",7,82,"circle.png","Friend","Mismatch ","Mismatch ",590.099999999977,1
9945615,"Self-Circle Task",7,83,"btriangle.png","Friend","Mismatch ","Mismatch ",749.100000000035,1
9945615,"Self-Circle Task",7,84,"circle.png","You","Match ","Match ",762.299999999988,1
9945615,"Self-Circle Task",8,85,"square.png","Friend","Match ","Mismatch ",425.299999856972,0
9945615,"Self-Circle Task",8,86,"btriangle.png","You","Mismatch ","Mismatch ",428.69999995234,1
9945615,"Self-Circle Task",8,87,"circle.png","Friend","Mismatch ","Match ",694.099999904633,0
9945615,"Self-Circle Task",8,88,"circle.png","You","Match ","Mismatch ",625.300000000047,0
9945615,"Self-Circle Task",8,89,"circle.png","Stranger","Mismatch ","Mismatch ",639.100000000035,1
9945615,"Self-Circle Task",8,90,"circle.png","You","Match ","Mismatch ",363.899999904621,0
9945615,"Self-Circle Task",8,91,"btriangle.png","Stranger","Match ","Mismatch ",565.899999856949,0
9945615,"Self-Circle Task",8,92,"square.png","Stranger","Mismatch ","Mismatch ",893.299999904644,1
9945615,"Self-Circle Task",8,93,"btriangle.png","Stranger","Match ","",1505.29999995232,0
9945615,"Self-Circle Task",8,94,"btriangle.png","Friend","Mismatch ","Mismatch ",833.5,1
9945615,"Self-Circle Task",8,95,"square.png","Friend","Match ","Match ",696.799999904644,1
9945615,"Self-Circle Task",8,96,"square.png","You","Mismatch ","Mismatch ",923.299999999988,1
9945615,"Self-Circle Task",9,97,"circle.png","Friend","Mismatch ","Match ",1170.29999995232,0
9945615,"Self-Circle Task",9,98,"square.png","Friend","Match ","Match ",695.69999995234,1
9945615,"Self-Circle Task",9,99,"square.png","Stranger","Mismatch ","Mismatch ",500.5,1
9945615,"Self-Circle Task",9,100,"btriangle.png","Stranger","Match ","Mismatch ",324.69999995234,0
9945615,"Self-Circle Task",9,101,"square.png","You","Mismatch ","Mismatch ",938.599999904633,1
9945615,"Self-Circle Task",9,102,"square.png","Friend","Match ","Match ",793.299999856972,1
9945615,"Self-Circle Task",9,103,"circle.png","Stranger","Mismatch ","Mismatch ",890.799999999988,1
9945615,"Self-Circle Task",9,104,"circle.png","You","Match ","Match ",872.899999856949,1
9945615,"Self-Circle Task",9,105,"btriangle.png","Stranger","Match ","Match ",190.499999809253,1
9945615,"Self-Circle Task",9,106,"btriangle.png","You","Mismatch ","Mismatch ",399.999999952328,1
9945615,"Self-Circle Task",9,107,"circle.png","You","Match ","Match ",867.599999999977,1
9945615,"Self-Circle Task",9,108,"btriangle.png","Friend","Mismatch ","Mismatch ",996.299999999988,1
9945615,"Self-Circle Task",10,109,"square.png","Stranger","Mismatch ","Mismatch ",1335.49999990466,1
9945615,"Self-Circle Task",10,110,"btriangle.png","Stranger","Match ","Mismatch ",998.099999809288,0
9945615,"Self-Circle Task",10,111,"square.png","You","Mismatch ","Match ",630.799999809242,0
9945615,"Self-Circle Task",10,112,"circle.png","You","Match ","Match ",660.59999985696,1
9945615,"Self-Circle Task",10,113,"btriangle.png","Friend","Mismatch ","Mismatch ",865.799999904644,1
9945615,"Self-Circle Task",10,114,"circle.png","Friend","Mismatch ","Mismatch ",890.999999809253,1
9945615,"Self-Circle Task",10,115,"circle.png","Stranger","Mismatch ","Match ",639.899999904621,0
9945615,"Self-Circle Task",10,116,"btriangle.png","Stranger","Match ","Mismatch ",507.200000000012,0
9945615,"Self-Circle Task",10,117,"square.png","Friend","Match ","Match ",857.09999985696,1
9945615,"Self-Circle Task",10,118,"circle.png","You","Match ","Match ",617.099999952305,1
9945615,"Self-Circle Task",10,119,"btriangle.png","You","Mismatch ","Mismatch ",750.799999999988,1
9945615,"Self-Circle Task",10,120,"square.png","Friend","Match ","Match ",713.599999904633,1
9945805,"Self-Circle Task",1,1,"btriangle.png","You","Mismatch ","Mismatch ",783.180999999997,1
9945805,"Self-Circle Task",1,2,"square.png","Friend","Match ","Match ",915.914999713903,1
9945805,"Self-Circle Task",1,3,"circle.png","You","Match ","Match ",498.432000095374,1
9945805,"Self-Circle Task",1,4,"square.png","Friend","Match ","Match ",899.690999999992,1
9945805,"Self-Circle Task",1,5,"circle.png","You","Match ","Match ",692.387999904633,1
9945805,"Self-Circle Task",1,6,"btriangle.png","Stranger","Match ","Mismatch ",578.553000095373,0
9945805,"Self-Circle Task",1,7,"btriangle.png","Friend","Mismatch ","Mismatch ",812.964999904638,1
9945805,"Self-Circle Task",1,8,"square.png","You","Mismatch ","Mismatch ",1083.14200000002,1
9945805,"Self-Circle Task",1,9,"circle.png","Stranger","Mismatch ","Mismatch ",883.180000000008,1
9945805,"Self-Circle Task",1,10,"square.png","Stranger","Mismatch ","Mismatch ",886.205000000002,1
9945805,"Self-Circle Task",1,11,"btriangle.png","Stranger","Match ","Mismatch ",684.687999713904,0
9945805,"Self-Circle Task",1,12,"circle.png","Friend","Mismatch ","Mismatch ",941.239000095375,1
9945805,"Self-Circle Task",2,13,"circle.png","Stranger","Mismatch ","Mismatch ",730.503999904628,1
9945805,"Self-Circle Task",2,14,"btriangle.png","Friend","Mismatch ","Mismatch ",882.673999999999,1
9945805,"Self-Circle Task",2,15,"circle.png","You","Match ","Match ",530.994999904622,1
9945805,"Self-Circle Task",2,16,"square.png","Stranger","Mismatch ","Mismatch ",843.582999713894,1
9945805,"Self-Circle Task",2,17,"btriangle.png","Stranger","Match ","Mismatch ",881.84499971391,0
9945805,"Self-Circle Task",2,18,"square.png","You","Mismatch ","Mismatch ",852.774999809277,1
9945805,"Self-Circle Task",2,19,"circle.png","Friend","Mismatch ","Mismatch ",704.371999809257,1
9945805,"Self-Circle Task",2,20,"btriangle.png","Stranger","Match ","Mismatch ",798.346999713889,0
9945805,"Self-Circle Task",2,21,"btriangle.png","You","Mismatch ","Mismatch ",814.950999904628,1
9945805,"Self-Circle Task",2,22,"circle.png","You","Match ","Match ",670.612000095367,1
9945805,"Self-Circle Task",2,23,"square.png","Friend","Match ","Match ",625.016000095377,1
9945805,"Self-Circle Task",2,24,"square.png","Friend","Match ","Mismatch ",697.416000095371,0
9945805,"Self-Circle Task",3,25,"circle.png","You","Match ","Match ",513.478999999992,1
9945805,"Self-Circle Task",3,26,"square.png","Friend","Match ","Match ",483.222999999998,1
9945805,"Self-Circle Task",3,27,"circle.png","Friend","Mismatch ","Match ",570.726999713894,0
9945805,"Self-Circle Task",3,28,"btriangle.png","You","Mismatch ","Mismatch ",579.797000095365,1
9945805,"Self-Circle Task",3,29,"btriangle.png","Stranger","Match ","Match ",736.810999713896,1
9945805,"Self-Circle Task",3,30,"circle.png","You","Match ","Match ",496.598000000027,1
9945805,"Self-Circle Task",3,31,"square.png","You","Mismatch ","Mismatch ",782.668999999994,1
9945805,"Self-Circle Task",3,32,"btriangle.png","Friend","Mismatch ","Mismatch ",731.137999904633,1
9945805,"Self-Circle Task",3,33,"square.png","Friend","Match ","Match ",427.995999713894,1
9945805,"Self-Circle Task",3,34,"circle.png","Stranger","Mismatch ","Mismatch ",715.119999904622,1
9945805,"Self-Circle Task",3,35,"btriangle.png","Stranger","Match ","Mismatch ",955.619999999995,0
9945805,"Self-Circle Task",3,36,"square.png","Stranger","Mismatch ","Mismatch ",1026.54799990464,1
9945805,"Self-Circle Task",4,37,"btriangle.png","Friend","Mismatch ","Mismatch ",779.161999904638,1
9945805,"Self-Circle Task",4,38,"square.png","Stranger","Mismatch ","Mismatch ",847.987999904639,1
9945805,"Self-Circle Task",4,39,"square.png","You","Mismatch ","Match ",1036.70599971389,0
9945805,"Self-Circle Task",4,40,"circle.png","Friend","Mismatch ","Mismatch ",752.025999904639,1
9945805,"Self-Circle Task",4,41,"square.png","Friend","Match ","Match ",729.828000000009,1
9945805,"Self-Circle Task",4,42,"circle.png","You","Match ","Match ",364.596000095364,1
9945805,"Self-Circle Task",4,43,"btriangle.png","You","Mismatch ","Mismatch ",566.648999809258,1
9945805,"Self-Circle Task",4,44,"btriangle.png","Stranger","Match ","Mismatch ",658.962000095373,0
9945805,"Self-Circle Task",4,45,"circle.png","You","Match ","Match ",566.338000000018,1
9945805,"Self-Circle Task",4,46,"square.png","Friend","Match ","Match ",753.613999809255,1
9945805,"Self-Circle Task",4,47,"btriangle.png","Stranger","Match ","Match ",434.457999999984,1
9945805,"Self-Circle Task",4,48,"circle.png","Stranger","Mismatch ","Mismatch ",797.087999809271,1
9945805,"Self-Circle Task",5,49,"square.png","Stranger","Mismatch ","Mismatch ",914.115999809263,1
9945805,"Self-Circle Task",5,50,"circle.png","Stranger","Mismatch ","Mismatch ",633.503000000026,1
9945805,"Self-Circle Task",5,51,"square.png","You","Mismatch ","Mismatch ",730.011999713897,1
9945805,"Self-Circle Task",5,52,"square.png","Friend","Match ","Match ",632.624999999971,1
9945805,"Self-Circle Task",5,53,"btriangle.png","Friend","Mismatch ","Mismatch ",750.445999999996,1
9945805,"Self-Circle Task",5,54,"circle.png","You","Match ","Match ",970.20099971391,1
9945805,"Self-Circle Task",5,55,"btriangle.png","Stranger","Match ","Match ",1102.87599999999,1
9945805,"Self-Circle Task",5,56,"circle.png","Friend","Mismatch ","Mismatch ",647.698999809276,1
9945805,"Self-Circle Task",5,57,"btriangle.png","You","Mismatch ","Mismatch ",682.492000000027,1
9945805,"Self-Circle Task",5,58,"circle.png","You","Match ","Match ",412.923999809253,1
9945805,"Self-Circle Task",5,59,"btriangle.png","Stranger","Match ","Mismatch ",582.277999999991,0
9945805,"Self-Circle Task",5,60,"square.png","Friend","Match ","Match ",619.590999713895,1
9945805,"Self-Circle Task",6,61,"square.png","Stranger","Mismatch ","Mismatch ",1487.171,1
9945805,"Self-Circle Task",6,62,"circle.png","Friend","Mismatch ","Match ",629.222999904654,0
9945805,"Self-Circle Task",6,63,"circle.png","You","Match ","Match ",569.028000095394,1
9945805,"Self-Circle Task",6,64,"square.png","You","Mismatch ","Mismatch ",682.901000000013,1
9945805,"Self-Circle Task",6,65,"btriangle.png","Stranger","Match ","Match ",748.830999809259,1
9945805,"Self-Circle Task",6,66,"square.png","Friend","Match ","Match ",753.401999809255,1
9945805,"Self-Circle Task",6,67,"circle.png","You","Match ","Match ",445.963000095391,1
9945805,"Self-Circle Task",6,68,"btriangle.png","Stranger","Match ","Match ",633.707999999984,1
9945805,"Self-Circle Task",6,69,"btriangle.png","You","Mismatch ","Mismatch ",594.957999809238,1
9945805,"Self-Circle Task",6,70,"btriangle.png","Friend","Mismatch ","Match ",607.433999904606,0
9945805,"Self-Circle Task",6,71,"square.png","Friend","Match ","Match ",832.683000095363,1
9945805,"Self-Circle Task",6,72,"circle.png","Stranger","Mismatch ","Mismatch ",741.972999713907,1
9945805,"Self-Circle Task",7,73,"circle.png","Stranger","Mismatch ","Mismatch ",683.728000000061,1
9945805,"Self-Circle Task",7,74,"btriangle.png","Friend","Mismatch ","Mismatch ",729.025999713922,1
9945805,"Self-Circle Task",7,75,"circle.png","You","Match ","Match ",413.237000000023,1
9945805,"Self-Circle Task",7,76,"btriangle.png","You","Mismatch ","Mismatch ",569.160999809275,1
9945805,"Self-Circle Task",7,77,"btriangle.png","Stranger","Match ","Match ",986.766000095347,1
9945805,"Self-Circle Task",7,78,"circle.png","You","Match ","Match ",484.992999999959,1
9945805,"Self-Circle Task",7,79,"square.png","Stranger","Mismatch ","Mismatch ",679.447999713884,1
9945805,"Self-Circle Task",7,80,"square.png","Friend","Match ","Match ",832.691000095394,1
9945805,"Self-Circle Task",7,81,"btriangle.png","Stranger","Match ","Match ",801.990999713889,1
9945805,"Self-Circle Task",7,82,"square.png","You","Mismatch ","Mismatch ",979.92899990466,1
9945805,"Self-Circle Task",7,83,"square.png","Friend","Match ","Match ",763.465999809268,1
9945805,"Self-Circle Task",7,84,"circle.png","Friend","Mismatch ","Mismatch ",679.34000009537,1
9945805,"Self-Circle Task",8,85,"square.png","You","Mismatch ","Mismatch ",1062.75199971389,1
9945805,"Self-Circle Task",8,86,"btriangle.png","Stranger","Match ","Match ",809.132999904628,1
9945805,"Self-Circle Task",8,87,"btriangle.png","You","Mismatch ","Mismatch ",1213.00499990466,1
9945805,"Self-Circle Task",8,88,"square.png","Friend","Match ","Match ",716.837,1
9945805,"Self-Circle Task",8,89,"btriangle.png","Stranger","Match ","Match ",816.22000000003,1
9945805,"Self-Circle Task",8,90,"circle.png","You","Match ","Match ",432.901000000013,1
9945805,"Self-Circle Task",8,91,"square.png","Stranger","Mismatch ","Mismatch ",917.429000000062,1
9945805,"Self-Circle Task",8,92,"circle.png","You","Match ","Match ",583.623999999953,1
9945805,"Self-Circle Task",8,93,"circle.png","Friend","Mismatch ","Mismatch ",716.662000000011,1
9945805,"Self-Circle Task",8,94,"btriangle.png","Friend","Mismatch ","Mismatch ",816.810000000056,1
9945805,"Self-Circle Task",8,95,"square.png","Friend","Match ","Match ",695.279999713879,1
9945805,"Self-Circle Task",8,96,"circle.png","Stranger","Mismatch ","Mismatch ",747.173999809253,1
9945805,"Self-Circle Task",9,97,"btriangle.png","Friend","Mismatch ","Mismatch ",818.259999809263,1
9945805,"Self-Circle Task",9,98,"square.png","Friend","Match ","Match ",631.014999904612,1
